"width","height","webaudio","browser","browser_version","mobile","os","fullscreen","vsync_rate","webcam","microphone","trial_type","trial_index","plugin_version","time_elapsed","subjID","condition","stimID","rt","url","success","value","timeout","failed_images","failed_audio","failed_video","view_history","stimulus","response","trialType","cycle","phase","trial","resp","cat","token","corr","resp_num","cat_num","time_fb1","time_fb2"
"828","426","true","chrome","129.0.0","false","Mac OS","true","59.99","true","true","browser-check","0","2.0.0","1015","672f61c0e551b93afb8cf779","1","46","","","","","","","","","","","","","","","","","","","","","","",""
"","","","","","","","","","","","external-html","1","2.0.0","179005","672f61c0e551b93afb8cf779","1","46","177674","consent_form.html","","","","","","","","","","","","","","","","","","","","",""
"","","","","","","","","","","","fullscreen","2","2.0.0","587965","672f61c0e551b93afb8cf779","1","46","407953","","true","","","","","","","","","","","","","","","","","","","",""
"","","","","","","","","","","","call-function","3","2.0.0","587970","672f61c0e551b93afb8cf779","1","46","","","","{}","","","","","","","","","","","","","","","","","","",""
"","","","","","","","","","","","preload","4","2.0.0","599325","672f61c0e551b93afb8cf779","1","46","","","true","","false","[]","[]","[]","","","","","","","","","","","","","","",""
"","","","","","","","","","","","instructions","5","2.0.0","631672","672f61c0e551b93afb8cf779","1","46","32345","","","","","","","","[{""page_index"":0,""viewing_time"":10246},{""page_index"":1,""viewing_time"":11315},{""page_index"":2,""viewing_time"":10782}]","","","","","","","","","","","","","",""
"","","","","","","","","","","","html-button-response","6","2.0.0","636455","672f61c0e551b93afb8cf779","1","46","4778","","","","","","","","","","0","start_test","","","","","","","","","","",""
"","","","","","","","","","","","html-button-response","7","2.0.0","640664","672f61c0e551b93afb8cf779","1","46","4203","","","","","","","","","<img src= ""rock_img/I_Pumice_08.jpg"" style=""width:8cm; height:6.67cm;""><p>What type of rock is this?</p>","1","class_response","0","test","1","Basalt","Pumice","08","false","2","8","",""
"","","","","","","","","","","","html-keyboard-response","8","2.0.0","641175","672f61c0e551b93afb8cf779","1","46","null","","","","","","","","","<p style='font-size: 30px;'><strong>Okay</strong></p>","null","neutral_feedback","0","test","1","","","","","","","",""
"","","","","","","","","","","","html-button-response","9","2.0.0","643731","672f61c0e551b93afb8cf779","1","46","2551","","","","","","","","","<img src= ""rock_img/I_Andesite_11.jpg"" style=""width:8cm; height:4.92cm;""><p>What type of rock is this?</p>","0","class_response","0","test","2","Andesite","Andesite","11","true","1","1","",""
"","","","","","","","","","","","html-keyboard-response","10","2.0.0","644235","672f61c0e551b93afb8cf779","1","46","null","","","","","","","","","<p style='font-size: 30px;'><strong>Okay</strong></p>","null","neutral_feedback","0","test","2","","","","","","","",""
"","","","","","","","","","","","html-button-response","11","2.0.0","646097","672f61c0e551b93afb8cf779","1","46","1857","","","","","","","","","<img src= ""rock_img/I_Andesite_05.jpg"" style=""width:8cm; height:4.12cm;""><p>What type of rock is this?</p>","2","class_response","0","test","3","Diorite","Andesite","05","false","3","1","",""
"","","","","","","","","","","","html-keyboard-response","12","2.0.0","646601","672f61c0e551b93afb8cf779","1","46","null","","","","","","","","","<p style='font-size: 30px;'><strong>Okay</strong></p>","null","neutral_feedback","0","test","3","","","","","","","",""
"","","","","","","","","","","","html-button-response","13","2.0.0","647905","672f61c0e551b93afb8cf779","1","46","1302","","","","","","","","","<img src= ""rock_img/I_Gabbro_01.jpg"" style=""width:8cm; height:5.21cm;""><p>What type of rock is this?</p>","3","class_response","0","test","4","Gabbro","Gabbro","01","true","4","4","",""
"","","","","","","","","","","","html-keyboard-response","14","2.0.0","648409","672f61c0e551b93afb8cf779","1","46","null","","","","","","","","","<p style='font-size: 30px;'><strong>Okay</strong></p>","null","neutral_feedback","0","test","4","","","","","","","",""
"","","","","","","","","","","","html-button-response","15","2.0.0","649488","672f61c0e551b93afb8cf779","1","46","1075","","","","","","","","","<img src= ""rock_img/I_Pumice_04.jpg"" style=""width:8cm; height:6.819999999999999cm;""><p>What type of rock is this?</p>","4","class_response","0","test","5","Obsidian","Pumice","04","false","5","8","",""
"","","","","","","","","","","","html-keyboard-response","16","2.0.0","649992","672f61c0e551b93afb8cf779","1","46","null","","","","","","","","","<p style='font-size: 30px;'><strong>Okay</strong></p>","null","neutral_feedback","0","test","5","","","","","","","",""
"","","","","","","","","","","","html-button-response","17","2.0.0","650799","672f61c0e551b93afb8cf779","1","46","802","","","","","","","","","<img src= ""rock_img/I_Gabbro_11.jpg"" style=""width:8cm; height:6.2cm;""><p>What type of rock is this?</p>","5","class_response","0","test","6","Pegmatite","Gabbro","11","false","6","4","",""
"","","","","","","","","","","","html-keyboard-response","18","2.0.0","651302","672f61c0e551b93afb8cf779","1","46","null","","","","","","","","","<p style='font-size: 30px;'><strong>Okay</strong></p>","null","neutral_feedback","0","test","6","","","","","","","",""
"","","","","","","","","","","","html-button-response","19","2.0.0","653205","672f61c0e551b93afb8cf779","1","46","1898","","","","","","","","","<img src= ""rock_img/I_Obsidian_02.jpg"" style=""width:8cm; height:7.51cm;""><p>What type of rock is this?</p>","6","class_response","0","test","7","Peridotite","Obsidian","02","false","7","5","",""
"","","","","","","","","","","","html-keyboard-response","20","2.0.0","653710","672f61c0e551b93afb8cf779","1","46","null","","","","","","","","","<p style='font-size: 30px;'><strong>Okay</strong></p>","null","neutral_feedback","0","test","7","","","","","","","",""
"","","","","","","","","","","","html-button-response","21","2.0.0","655010","672f61c0e551b93afb8cf779","1","46","1296","","","","","","","","","<img src= ""rock_img/I_Peridotite_05.jpg"" style=""width:8cm; height:7.1499999999999995cm;""><p>What type of rock is this?</p>","7","class_response","0","test","8","Pumice","Peridotite","05","false","8","7","",""
"","","","","","","","","","","","html-keyboard-response","22","2.0.0","655514","672f61c0e551b93afb8cf779","1","46","null","","","","","","","","","<p style='font-size: 30px;'><strong>Okay</strong></p>","null","neutral_feedback","0","test","8","","","","","","","",""
"","","","","","","","","","","","html-button-response","23","2.0.0","657537","672f61c0e551b93afb8cf779","1","46","2020","","","","","","","","","<img src= ""rock_img/I_Pumice_14.jpg"" style=""width:8cm; height:6.39cm;""><p>What type of rock is this?</p>","7","class_response","0","test","9","Pumice","Pumice","14","true","8","8","",""
"","","","","","","","","","","","html-keyboard-response","24","2.0.0","658041","672f61c0e551b93afb8cf779","1","46","null","","","","","","","","","<p style='font-size: 30px;'><strong>Okay</strong></p>","null","neutral_feedback","0","test","9","","","","","","","",""
"","","","","","","","","","","","html-button-response","25","2.0.0","659209","672f61c0e551b93afb8cf779","1","46","1165","","","","","","","","","<img src= ""rock_img/I_Diorite_16.jpg"" style=""width:8cm; height:6.74cm;""><p>What type of rock is this?</p>","3","class_response","0","test","10","Gabbro","Diorite","16","false","4","3","",""
"","","","","","","","","","","","html-keyboard-response","26","2.0.0","659713","672f61c0e551b93afb8cf779","1","46","null","","","","","","","","","<p style='font-size: 30px;'><strong>Okay</strong></p>","null","neutral_feedback","0","test","10","","","","","","","",""
"","","","","","","","","","","","html-button-response","27","2.0.0","660617","672f61c0e551b93afb8cf779","1","46","901","","","","","","","","","<img src= ""rock_img/I_Gabbro_13.jpg"" style=""width:8cm; height:5.08cm;""><p>What type of rock is this?</p>","4","class_response","0","test","11","Obsidian","Gabbro","13","false","5","4","",""
"","","","","","","","","","","","html-keyboard-response","28","2.0.0","661119","672f61c0e551b93afb8cf779","1","46","null","","","","","","","","","<p style='font-size: 30px;'><strong>Okay</strong></p>","null","neutral_feedback","0","test","11","","","","","","","",""
"","","","","","","","","","","","html-button-response","29","2.0.0","661642","672f61c0e551b93afb8cf779","1","46","519","","","","","","","","","<img src= ""rock_img/I_Gabbro_08.jpg"" style=""width:8cm; height:5.15cm;""><p>What type of rock is this?</p>","5","class_response","0","test","12","Pegmatite","Gabbro","08","false","6","4","",""
"","","","","","","","","","","","html-keyboard-response","30","2.0.0","662145","672f61c0e551b93afb8cf779","1","46","null","","","","","","","","","<p style='font-size: 30px;'><strong>Okay</strong></p>","null","neutral_feedback","0","test","12","","","","","","","",""
"","","","","","","","","","","","html-button-response","31","2.0.0","662838","672f61c0e551b93afb8cf779","1","46","689","","","","","","","","","<img src= ""rock_img/I_Andesite_14.jpg"" style=""width:8cm; height:5.449999999999999cm;""><p>What type of rock is this?</p>","6","class_response","0","test","13","Peridotite","Andesite","14","false","7","1","",""
"","","","","","","","","","","","html-keyboard-response","32","2.0.0","663342","672f61c0e551b93afb8cf779","1","46","null","","","","","","","","","<p style='font-size: 30px;'><strong>Okay</strong></p>","null","neutral_feedback","0","test","13","","","","","","","",""
"","","","","","","","","","","","html-button-response","33","2.0.0","664302","672f61c0e551b93afb8cf779","1","46","956","","","","","","","","","<img src= ""rock_img/I_Diorite_10.jpg"" style=""width:8cm; height:5.949999999999999cm;""><p>What type of rock is this?</p>","7","class_response","0","test","14","Pumice","Diorite","10","false","8","3","",""
"","","","","","","","","","","","html-keyboard-response","34","2.0.0","664805","672f61c0e551b93afb8cf779","1","46","null","","","","","","","","","<p style='font-size: 30px;'><strong>Okay</strong></p>","null","neutral_feedback","0","test","14","","","","","","","",""
"","","","","","","","","","","","html-button-response","35","2.0.0","666037","672f61c0e551b93afb8cf779","1","46","1228","","","","","","","","","<img src= ""rock_img/I_Diorite_12.jpg"" style=""width:8cm; height:4.88cm;""><p>What type of rock is this?</p>","0","class_response","0","test","15","Andesite","Diorite","12","false","1","3","",""
"","","","","","","","","","","","html-keyboard-response","36","2.0.0","666540","672f61c0e551b93afb8cf779","1","46","null","","","","","","","","","<p style='font-size: 30px;'><strong>Okay</strong></p>","null","neutral_feedback","0","test","15","","","","","","","",""
"","","","","","","","","","","","html-button-response","37","2.0.0","668040","672f61c0e551b93afb8cf779","1","46","1497","","","","","","","","","<img src= ""rock_img/I_Basalt_16.jpg"" style=""width:8cm; height:7.659999999999999cm;""><p>What type of rock is this?</p>","1","class_response","0","test","16","Basalt","Basalt","16","true","2","2","",""
"","","","","","","","","","","","html-keyboard-response","38","2.0.0","668542","672f61c0e551b93afb8cf779","1","46","null","","","","","","","","","<p style='font-size: 30px;'><strong>Okay</strong></p>","null","neutral_feedback","0","test","16","","","","","","","",""
"","","","","","","","","","","","html-button-response","39","2.0.0","669310","672f61c0e551b93afb8cf779","1","46","765","","","","","","","","","<img src= ""rock_img/I_Obsidian_06.jpg"" style=""width:8cm; height:6.8cm;""><p>What type of rock is this?</p>","2","class_response","0","test","17","Diorite","Obsidian","06","false","3","5","",""
"","","","","","","","","","","","html-keyboard-response","40","2.0.0","669814","672f61c0e551b93afb8cf779","1","46","null","","","","","","","","","<p style='font-size: 30px;'><strong>Okay</strong></p>","null","neutral_feedback","0","test","17","","","","","","","",""
"","","","","","","","","","","","html-button-response","41","2.0.0","670854","672f61c0e551b93afb8cf779","1","46","1036","","","","","","","","","<img src= ""rock_img/I_Peridotite_02.jpg"" style=""width:8cm; height:5.859999999999999cm;""><p>What type of rock is this?</p>","3","class_response","0","test","18","Gabbro","Peridotite","02","false","4","7","",""
"","","","","","","","","","","","html-keyboard-response","42","2.0.0","671358","672f61c0e551b93afb8cf779","1","46","null","","","","","","","","","<p style='font-size: 30px;'><strong>Okay</strong></p>","null","neutral_feedback","0","test","18","","","","","","","",""
"","","","","","","","","","","","html-button-response","43","2.0.0","672422","672f61c0e551b93afb8cf779","1","46","1060","","","","","","","","","<img src= ""rock_img/I_Peridotite_16.jpg"" style=""width:8cm; height:6.989999999999999cm;""><p>What type of rock is this?</p>","4","class_response","0","test","19","Obsidian","Peridotite","16","false","5","7","",""
"","","","","","","","","","","","html-keyboard-response","44","2.0.0","672926","672f61c0e551b93afb8cf779","1","46","null","","","","","","","","","<p style='font-size: 30px;'><strong>Okay</strong></p>","null","neutral_feedback","0","test","19","","","","","","","",""
"","","","","","","","","","","","html-button-response","45","2.0.0","674370","672f61c0e551b93afb8cf779","1","46","1442","","","","","","","","","<img src= ""rock_img/I_Gabbro_15.jpg"" style=""width:8cm; height:6.29cm;""><p>What type of rock is this?</p>","5","class_response","0","test","20","Pegmatite","Gabbro","15","false","6","4","",""
"","","","","","","","","","","","html-keyboard-response","46","2.0.0","674873","672f61c0e551b93afb8cf779","1","46","null","","","","","","","","","<p style='font-size: 30px;'><strong>Okay</strong></p>","null","neutral_feedback","0","test","20","","","","","","","",""
"","","","","","","","","","","","html-button-response","47","2.0.0","677174","672f61c0e551b93afb8cf779","1","46","2297","","","","","","","","","<img src= ""rock_img/I_Andesite_16.jpg"" style=""width:8cm; height:6.010000000000001cm;""><p>What type of rock is this?</p>","6","class_response","0","test","21","Peridotite","Andesite","16","false","7","1","",""
"","","","","","","","","","","","html-keyboard-response","48","2.0.0","677678","672f61c0e551b93afb8cf779","1","46","null","","","","","","","","","<p style='font-size: 30px;'><strong>Okay</strong></p>","null","neutral_feedback","0","test","21","","","","","","","",""
"","","","","","","","","","","","html-button-response","49","2.0.0","679675","672f61c0e551b93afb8cf779","1","46","1995","","","","","","","","","<img src= ""rock_img/I_Diorite_13.jpg"" style=""width:8cm; height:6.29cm;""><p>What type of rock is this?</p>","1","class_response","0","test","22","Basalt","Diorite","13","false","2","3","",""
"","","","","","","","","","","","html-keyboard-response","50","2.0.0","680179","672f61c0e551b93afb8cf779","1","46","null","","","","","","","","","<p style='font-size: 30px;'><strong>Okay</strong></p>","null","neutral_feedback","0","test","22","","","","","","","",""
"","","","","","","","","","","","html-button-response","51","2.0.0","683905","672f61c0e551b93afb8cf779","1","46","3723","","","","","","","","","<img src= ""rock_img/I_Pegmatite_16.jpg"" style=""width:8cm; height:5.8cm;""><p>What type of rock is this?</p>","7","class_response","0","test","23","Pumice","Pegmatite","16","false","8","6","",""
"","","","","","","","","","","","html-keyboard-response","52","2.0.0","684409","672f61c0e551b93afb8cf779","1","46","null","","","","","","","","","<p style='font-size: 30px;'><strong>Okay</strong></p>","null","neutral_feedback","0","test","23","","","","","","","",""
"","","","","","","","","","","","html-button-response","53","2.0.0","686298","672f61c0e551b93afb8cf779","1","46","1885","","","","","","","","","<img src= ""rock_img/I_Peridotite_12.jpg"" style=""width:8cm; height:4.54cm;""><p>What type of rock is this?</p>","7","class_response","0","test","24","Pumice","Peridotite","12","false","8","7","",""
"","","","","","","","","","","","html-keyboard-response","54","2.0.0","686802","672f61c0e551b93afb8cf779","1","46","null","","","","","","","","","<p style='font-size: 30px;'><strong>Okay</strong></p>","null","neutral_feedback","0","test","24","","","","","","","",""
"","","","","","","","","","","","html-button-response","55","2.0.0","689175","672f61c0e551b93afb8cf779","1","46","2369","","","","","","","","","<img src= ""rock_img/I_Gabbro_12.jpg"" style=""width:8cm; height:7.800000000000001cm;""><p>What type of rock is this?</p>","0","class_response","0","test","25","Andesite","Gabbro","12","false","1","4","",""
"","","","","","","","","","","","html-keyboard-response","56","2.0.0","689679","672f61c0e551b93afb8cf779","1","46","null","","","","","","","","","<p style='font-size: 30px;'><strong>Okay</strong></p>","null","neutral_feedback","0","test","25","","","","","","","",""
"","","","","","","","","","","","html-button-response","57","2.0.0","691009","672f61c0e551b93afb8cf779","1","46","1326","","","","","","","","","<img src= ""rock_img/I_Diorite_08.jpg"" style=""width:8cm; height:6.37cm;""><p>What type of rock is this?</p>","1","class_response","0","test","26","Basalt","Diorite","08","false","2","3","",""
"","","","","","","","","","","","html-keyboard-response","58","2.0.0","691513","672f61c0e551b93afb8cf779","1","46","null","","","","","","","","","<p style='font-size: 30px;'><strong>Okay</strong></p>","null","neutral_feedback","0","test","26","","","","","","","",""
"","","","","","","","","","","","html-button-response","59","2.0.0","693435","672f61c0e551b93afb8cf779","1","46","1918","","","","","","","","","<img src= ""rock_img/I_Basalt_12.jpg"" style=""width:8cm; height:6.010000000000001cm;""><p>What type of rock is this?</p>","4","class_response","0","test","27","Obsidian","Basalt","12","false","5","2","",""
"","","","","","","","","","","","html-keyboard-response","60","2.0.0","693939","672f61c0e551b93afb8cf779","1","46","null","","","","","","","","","<p style='font-size: 30px;'><strong>Okay</strong></p>","null","neutral_feedback","0","test","27","","","","","","","",""
"","","","","","","","","","","","html-button-response","61","2.0.0","696951","672f61c0e551b93afb8cf779","1","46","3007","","","","","","","","","<img src= ""rock_img/I_Pegmatite_06.jpg"" style=""width:8cm; height:5.17cm;""><p>What type of rock is this?</p>","7","class_response","0","test","28","Pumice","Pegmatite","06","false","8","6","",""
"","","","","","","","","","","","html-keyboard-response","62","2.0.0","697454","672f61c0e551b93afb8cf779","1","46","null","","","","","","","","","<p style='font-size: 30px;'><strong>Okay</strong></p>","null","neutral_feedback","0","test","28","","","","","","","",""
"","","","","","","","","","","","html-button-response","63","2.0.0","699746","672f61c0e551b93afb8cf779","1","46","2288","","","","","","","","","<img src= ""rock_img/I_Obsidian_12.jpg"" style=""width:8cm; height:6.53cm;""><p>What type of rock is this?</p>","7","class_response","0","test","29","Pumice","Obsidian","12","false","8","5","",""
"","","","","","","","","","","","html-keyboard-response","64","2.0.0","700250","672f61c0e551b93afb8cf779","1","46","null","","","","","","","","","<p style='font-size: 30px;'><strong>Okay</strong></p>","null","neutral_feedback","0","test","29","","","","","","","",""
"","","","","","","","","","","","html-button-response","65","2.0.0","702670","672f61c0e551b93afb8cf779","1","46","2416","","","","","","","","","<img src= ""rock_img/I_Diorite_09.jpg"" style=""width:8cm; height:5.27cm;""><p>What type of rock is this?</p>","1","class_response","0","test","30","Basalt","Diorite","09","false","2","3","",""
"","","","","","","","","","","","html-keyboard-response","66","2.0.0","703174","672f61c0e551b93afb8cf779","1","46","null","","","","","","","","","<p style='font-size: 30px;'><strong>Okay</strong></p>","null","neutral_feedback","0","test","30","","","","","","","",""
"","","","","","","","","","","","html-button-response","67","2.0.0","704698","672f61c0e551b93afb8cf779","1","46","1520","","","","","","","","","<img src= ""rock_img/I_Pegmatite_15.jpg"" style=""width:8cm; height:6cm;""><p>What type of rock is this?</p>","0","class_response","0","test","31","Andesite","Pegmatite","15","false","1","6","",""
"","","","","","","","","","","","html-keyboard-response","68","2.0.0","705202","672f61c0e551b93afb8cf779","1","46","null","","","","","","","","","<p style='font-size: 30px;'><strong>Okay</strong></p>","null","neutral_feedback","0","test","31","","","","","","","",""
"","","","","","","","","","","","html-button-response","69","2.0.0","707167","672f61c0e551b93afb8cf779","1","46","1961","","","","","","","","","<img src= ""rock_img/I_Pegmatite_05.jpg"" style=""width:8cm; height:7.300000000000001cm;""><p>What type of rock is this?</p>","1","class_response","0","test","32","Basalt","Pegmatite","05","false","2","6","",""
"","","","","","","","","","","","html-keyboard-response","70","2.0.0","707671","672f61c0e551b93afb8cf779","1","46","null","","","","","","","","","<p style='font-size: 30px;'><strong>Okay</strong></p>","null","neutral_feedback","0","test","32","","","","","","","",""
"","","","","","","","","","","","html-button-response","71","2.0.0","710106","672f61c0e551b93afb8cf779","1","46","2432","","","","","","","","","<img src= ""rock_img/I_Peridotite_10.jpg"" style=""width:8cm; height:5.390000000000001cm;""><p>What type of rock is this?</p>","3","class_response","0","test","33","Gabbro","Peridotite","10","false","4","7","",""
"","","","","","","","","","","","html-keyboard-response","72","2.0.0","710610","672f61c0e551b93afb8cf779","1","46","null","","","","","","","","","<p style='font-size: 30px;'><strong>Okay</strong></p>","null","neutral_feedback","0","test","33","","","","","","","",""
"","","","","","","","","","","","html-button-response","73","2.0.0","713647","672f61c0e551b93afb8cf779","1","46","3033","","","","","","","","","<img src= ""rock_img/I_Obsidian_05.jpg"" style=""width:8cm; height:6.33cm;""><p>What type of rock is this?</p>","7","class_response","0","test","34","Pumice","Obsidian","05","false","8","5","",""
"","","","","","","","","","","","html-keyboard-response","74","2.0.0","714150","672f61c0e551b93afb8cf779","1","46","null","","","","","","","","","<p style='font-size: 30px;'><strong>Okay</strong></p>","null","neutral_feedback","0","test","34","","","","","","","",""
"","","","","","","","","","","","html-button-response","75","2.0.0","716887","672f61c0e551b93afb8cf779","1","46","2733","","","","","","","","","<img src= ""rock_img/I_Pegmatite_09.jpg"" style=""width:8cm; height:4.03cm;""><p>What type of rock is this?</p>","6","class_response","0","test","35","Peridotite","Pegmatite","09","false","7","6","",""
"","","","","","","","","","","","html-keyboard-response","76","2.0.0","717391","672f61c0e551b93afb8cf779","1","46","null","","","","","","","","","<p style='font-size: 30px;'><strong>Okay</strong></p>","null","neutral_feedback","0","test","35","","","","","","","",""
"","","","","","","","","","","","html-button-response","77","2.0.0","722938","672f61c0e551b93afb8cf779","1","46","5544","","","","","","","","","<img src= ""rock_img/I_Pumice_03.jpg"" style=""width:8cm; height:6.64cm;""><p>What type of rock is this?</p>","0","class_response","0","test","36","Andesite","Pumice","03","false","1","8","",""
"","","","","","","","","","","","html-keyboard-response","78","2.0.0","723441","672f61c0e551b93afb8cf779","1","46","null","","","","","","","","","<p style='font-size: 30px;'><strong>Okay</strong></p>","null","neutral_feedback","0","test","36","","","","","","","",""
"","","","","","","","","","","","html-button-response","79","2.0.0","724363","672f61c0e551b93afb8cf779","1","46","917","","","","","","","","","<img src= ""rock_img/I_Andesite_04.jpg"" style=""width:8cm; height:5.96cm;""><p>What type of rock is this?</p>","1","class_response","0","test","37","Basalt","Andesite","04","false","2","1","",""
"","","","","","","","","","","","html-keyboard-response","80","2.0.0","724867","672f61c0e551b93afb8cf779","1","46","null","","","","","","","","","<p style='font-size: 30px;'><strong>Okay</strong></p>","null","neutral_feedback","0","test","37","","","","","","","",""
"","","","","","","","","","","","html-button-response","81","2.0.0","728703","672f61c0e551b93afb8cf779","1","46","3832","","","","","","","","","<img src= ""rock_img/I_Basalt_05.jpg"" style=""width:8cm; height:8.18cm;""><p>What type of rock is this?</p>","7","class_response","0","test","38","Pumice","Basalt","05","false","8","2","",""
"","","","","","","","","","","","html-keyboard-response","82","2.0.0","729207","672f61c0e551b93afb8cf779","1","46","null","","","","","","","","","<p style='font-size: 30px;'><strong>Okay</strong></p>","null","neutral_feedback","0","test","38","","","","","","","",""
"","","","","","","","","","","","html-button-response","83","2.0.0","731350","672f61c0e551b93afb8cf779","1","46","2139","","","","","","","","","<img src= ""rock_img/I_Pumice_16.jpg"" style=""width:8cm; height:6.79cm;""><p>What type of rock is this?</p>","6","class_response","0","test","39","Peridotite","Pumice","16","false","7","8","",""
"","","","","","","","","","","","html-keyboard-response","84","2.0.0","731853","672f61c0e551b93afb8cf779","1","46","null","","","","","","","","","<p style='font-size: 30px;'><strong>Okay</strong></p>","null","neutral_feedback","0","test","39","","","","","","","",""
"","","","","","","","","","","","html-button-response","85","2.0.0","733314","672f61c0e551b93afb8cf779","1","46","1458","","","","","","","","","<img src= ""rock_img/I_Basalt_01.jpg"" style=""width:8cm; height:7.880000000000001cm;""><p>What type of rock is this?</p>","0","class_response","0","test","40","Andesite","Basalt","01","false","1","2","",""
"","","","","","","","","","","","html-keyboard-response","86","2.0.0","733817","672f61c0e551b93afb8cf779","1","46","null","","","","","","","","","<p style='font-size: 30px;'><strong>Okay</strong></p>","null","neutral_feedback","0","test","40","","","","","","","",""
"","","","","","","","","","","","html-button-response","87","2.0.0","736078","672f61c0e551b93afb8cf779","1","46","2257","","","","","","","","","<img src= ""rock_img/I_Andesite_03.jpg"" style=""width:8cm; height:5.73cm;""><p>What type of rock is this?</p>","7","class_response","0","test","41","Pumice","Andesite","03","false","8","1","",""
"","","","","","","","","","","","html-keyboard-response","88","2.0.0","736582","672f61c0e551b93afb8cf779","1","46","null","","","","","","","","","<p style='font-size: 30px;'><strong>Okay</strong></p>","null","neutral_feedback","0","test","41","","","","","","","",""
"","","","","","","","","","","","html-button-response","89","2.0.0","737951","672f61c0e551b93afb8cf779","1","46","1365","","","","","","","","","<img src= ""rock_img/I_Obsidian_11.jpg"" style=""width:8cm; height:6.05cm;""><p>What type of rock is this?</p>","6","class_response","0","test","42","Peridotite","Obsidian","11","false","7","5","",""
"","","","","","","","","","","","html-keyboard-response","90","2.0.0","738454","672f61c0e551b93afb8cf779","1","46","null","","","","","","","","","<p style='font-size: 30px;'><strong>Okay</strong></p>","null","neutral_feedback","0","test","42","","","","","","","",""
"","","","","","","","","","","","html-button-response","91","2.0.0","743295","672f61c0e551b93afb8cf779","1","46","4838","","","","","","","","","<img src= ""rock_img/I_Pegmatite_11.jpg"" style=""width:8cm; height:8.14cm;""><p>What type of rock is this?</p>","7","class_response","0","test","43","Pumice","Pegmatite","11","false","8","6","",""
"","","","","","","","","","","","html-keyboard-response","92","2.0.0","743799","672f61c0e551b93afb8cf779","1","46","null","","","","","","","","","<p style='font-size: 30px;'><strong>Okay</strong></p>","null","neutral_feedback","0","test","43","","","","","","","",""
"","","","","","","","","","","","html-button-response","93","2.0.0","747116","672f61c0e551b93afb8cf779","1","46","3313","","","","","","","","","<img src= ""rock_img/I_Basalt_06.jpg"" style=""width:8cm; height:7.06cm;""><p>What type of rock is this?</p>","0","class_response","0","test","44","Andesite","Basalt","06","false","1","2","",""
"","","","","","","","","","","","html-keyboard-response","94","2.0.0","747618","672f61c0e551b93afb8cf779","1","46","null","","","","","","","","","<p style='font-size: 30px;'><strong>Okay</strong></p>","null","neutral_feedback","0","test","44","","","","","","","",""
"","","","","","","","","","","","html-button-response","95","2.0.0","749696","672f61c0e551b93afb8cf779","1","46","2074","","","","","","","","","<img src= ""rock_img/I_Basalt_04.jpg"" style=""width:8cm; height:7.53cm;""><p>What type of rock is this?</p>","0","class_response","0","test","45","Andesite","Basalt","04","false","1","2","",""
"","","","","","","","","","","","html-keyboard-response","96","2.0.0","750200","672f61c0e551b93afb8cf779","1","46","null","","","","","","","","","<p style='font-size: 30px;'><strong>Okay</strong></p>","null","neutral_feedback","0","test","45","","","","","","","",""
"","","","","","","","","","","","html-button-response","97","2.0.0","755278","672f61c0e551b93afb8cf779","1","46","5075","","","","","","","","","<img src= ""rock_img/I_Peridotite_14.jpg"" style=""width:8cm; height:5.3cm;""><p>What type of rock is this?</p>","2","class_response","0","test","46","Diorite","Peridotite","14","false","3","7","",""
"","","","","","","","","","","","html-keyboard-response","98","2.0.0","755782","672f61c0e551b93afb8cf779","1","46","null","","","","","","","","","<p style='font-size: 30px;'><strong>Okay</strong></p>","null","neutral_feedback","0","test","46","","","","","","","",""
"","","","","","","","","","","","html-button-response","99","2.0.0","759889","672f61c0e551b93afb8cf779","1","46","4103","","","","","","","","","<img src= ""rock_img/I_Pumice_09.jpg"" style=""width:8cm; height:6.44cm;""><p>What type of rock is this?</p>","2","class_response","0","test","47","Diorite","Pumice","09","false","3","8","",""
"","","","","","","","","","","","html-keyboard-response","100","2.0.0","760392","672f61c0e551b93afb8cf779","1","46","null","","","","","","","","","<p style='font-size: 30px;'><strong>Okay</strong></p>","null","neutral_feedback","0","test","47","","","","","","","",""
"","","","","","","","","","","","html-button-response","101","2.0.0","762361","672f61c0e551b93afb8cf779","1","46","1966","","","","","","","","","<img src= ""rock_img/I_Obsidian_09.jpg"" style=""width:8cm; height:5cm;""><p>What type of rock is this?</p>","7","class_response","0","test","48","Pumice","Obsidian","09","false","8","5","",""
"","","","","","","","","","","","html-keyboard-response","102","2.0.0","762864","672f61c0e551b93afb8cf779","1","46","null","","","","","","","","","<p style='font-size: 30px;'><strong>Okay</strong></p>","null","neutral_feedback","0","test","48","","","","","","","",""
"","","","","","","","","","","","instructions","103","2.0.0","784188","672f61c0e551b93afb8cf779","1","46","21291","","","","","","","","[{""page_index"":0,""viewing_time"":11918},{""page_index"":1,""viewing_time"":2852},{""page_index"":2,""viewing_time"":6521}]","","","","","","","","","","","","","",""
"","","","","","","","","","","","html-button-response","104","2.0.0","788646","672f61c0e551b93afb8cf779","1","46","4453","","","","","","","","","","0","start_train","","","","","","","","","","",""
"","","","","","","","","","","","html-button-response","105","2.0.0","796659","672f61c0e551b93afb8cf779","1","46","8009","","","","","","","","","<img src= ""rock_img/I_Basalt_11.jpg"" style=""width:8cm; height:5.359999999999999cm;""><p>What type of rock is this?</p>","0","class_response","1","train","1","Andesite","Basalt","11","false","1","2","",""
"","","","","","","","","","","","html-button-response","106","2.0.0","814413","672f61c0e551b93afb8cf779","1","46","17752","","","","","","","","","<img src= rock_img/I_Basalt_11.jpg style=""width:8cm; height:5.359999999999999cm;""><p style='font-size: 30px; color: red;'><strong>Incorrect!</strong></p><p style='font-size: 30px;'><strong>This rock is basalt</strong></p>","0","corr_feedback","1","train","1","","","","","","","",""
"","","","","","","","","","","","html-button-response","107","2.0.0","817067","672f61c0e551b93afb8cf779","1","46","2651","","","","","","","","","<img src= ""rock_img/I_Andesite_02.jpg"" style=""width:8cm; height:8.5cm;""><p>What type of rock is this?</p>","0","class_response","1","train","2","Andesite","Andesite","02","true","1","1","",""
"","","","","","","","","","","","html-button-response","108","2.0.0","822502","672f61c0e551b93afb8cf779","1","46","5433","","","","","","","","","<img src= rock_img/I_Andesite_02.jpg style=""width:8cm; height:8.5cm;""><p style='font-size: 30px; color: green;'><strong>Correct!</strong></p><p style='font-size: 30px;'><strong>This rock is andesite</strong></p>","0","corr_feedback","1","train","2","","","","","","","",""
"","","","","","","","","","","","html-button-response","109","2.0.0","824233","672f61c0e551b93afb8cf779","1","46","1729","","","","","","","","","<img src= ""rock_img/I_Obsidian_16.jpg"" style=""width:8cm; height:9.3cm;""><p>What type of rock is this?</p>","7","class_response","1","train","3","Pumice","Obsidian","16","false","8","5","",""
"","","","","","","","","","","","html-button-response","110","2.0.0","828909","672f61c0e551b93afb8cf779","1","46","4673","","","","","","","","","<img src= rock_img/I_Obsidian_16.jpg style=""width:8cm; height:9.3cm;""><p style='font-size: 30px; color: red;'><strong>Incorrect!</strong></p><p style='font-size: 30px;'><strong>This rock is obsidian</strong></p>","0","corr_feedback","1","train","3","","","","","","","",""
"","","","","","","","","","","","html-button-response","111","2.0.0","832232","672f61c0e551b93afb8cf779","1","46","3320","","","","","","","","","<img src= ""rock_img/I_Basalt_09.jpg"" style=""width:8cm; height:6.2cm;""><p>What type of rock is this?</p>","3","class_response","1","train","4","Gabbro","Basalt","09","false","4","2","",""
"","","","","","","","","","","","html-button-response","112","2.0.0","836965","672f61c0e551b93afb8cf779","1","46","4729","","","","","","","","","<img src= rock_img/I_Basalt_09.jpg style=""width:8cm; height:6.2cm;""><p style='font-size: 30px; color: red;'><strong>Incorrect!</strong></p><p style='font-size: 30px;'><strong>This rock is basalt</strong></p>","0","corr_feedback","1","train","4","","","","","","","",""
"","","","","","","","","","","","html-button-response","113","2.0.0","839529","672f61c0e551b93afb8cf779","1","46","2561","","","","","","","","","<img src= ""rock_img/I_Basalt_08.jpg"" style=""width:8cm; height:10.44cm;""><p>What type of rock is this?</p>","0","class_response","1","train","5","Andesite","Basalt","08","false","1","2","",""
"","","","","","","","","","","","html-button-response","114","2.0.0","845355","672f61c0e551b93afb8cf779","1","46","5822","","","","","","","","","<img src= rock_img/I_Basalt_08.jpg style=""width:8cm; height:10.44cm;""><p style='font-size: 30px; color: red;'><strong>Incorrect!</strong></p><p style='font-size: 30px;'><strong>This rock is basalt</strong></p>","0","corr_feedback","1","train","5","","","","","","","",""
"","","","","","","","","","","","html-button-response","115","2.0.0","847003","672f61c0e551b93afb8cf779","1","46","1644","","","","","","","","","<img src= ""rock_img/I_Gabbro_10.jpg"" style=""width:8cm; height:5.680000000000001cm;""><p>What type of rock is this?</p>","2","class_response","1","train","6","Diorite","Gabbro","10","false","3","4","",""
"","","","","","","","","","","","html-button-response","116","2.0.0","850963","672f61c0e551b93afb8cf779","1","46","3956","","","","","","","","","<img src= rock_img/I_Gabbro_10.jpg style=""width:8cm; height:5.680000000000001cm;""><p style='font-size: 30px; color: red;'><strong>Incorrect!</strong></p><p style='font-size: 30px;'><strong>This rock is gabbro</strong></p>","0","corr_feedback","1","train","6","","","","","","","",""
"","","","","","","","","","","","html-button-response","117","2.0.0","854395","672f61c0e551b93afb8cf779","1","46","3428","","","","","","","","","<img src= ""rock_img/I_Obsidian_10.jpg"" style=""width:8cm; height:6.260000000000001cm;""><p>What type of rock is this?</p>","4","class_response","1","train","7","Obsidian","Obsidian","10","true","5","5","",""
"","","","","","","","","","","","html-button-response","118","2.0.0","858886","672f61c0e551b93afb8cf779","1","46","4488","","","","","","","","","<img src= rock_img/I_Obsidian_10.jpg style=""width:8cm; height:6.260000000000001cm;""><p style='font-size: 30px; color: green;'><strong>Correct!</strong></p><p style='font-size: 30px;'><strong>This rock is obsidian</strong></p>","0","corr_feedback","1","train","7","","","","","","","",""
"","","","","","","","","","","","html-button-response","119","2.0.0","860908","672f61c0e551b93afb8cf779","1","46","2017","","","","","","","","","<img src= ""rock_img/I_Peridotite_07.jpg"" style=""width:8cm; height:4.83cm;""><p>What type of rock is this?</p>","1","class_response","1","train","8","Basalt","Peridotite","07","false","2","7","",""
"","","","","","","","","","","","html-button-response","120","2.0.0","865651","672f61c0e551b93afb8cf779","1","46","4739","","","","","","","","","<img src= rock_img/I_Peridotite_07.jpg style=""width:8cm; height:4.83cm;""><p style='font-size: 30px; color: red;'><strong>Incorrect!</strong></p><p style='font-size: 30px;'><strong>This rock is peridotite</strong></p>","0","corr_feedback","1","train","8","","","","","","","",""
"","","","","","","","","","","","html-button-response","121","2.0.0","867495","672f61c0e551b93afb8cf779","1","46","1842","","","","","","","","","<img src= ""rock_img/I_Pegmatite_12.jpg"" style=""width:8cm; height:5.7cm;""><p>What type of rock is this?</p>","0","class_response","1","train","9","Andesite","Pegmatite","12","false","1","6","",""
"","","","","","","","","","","","html-button-response","122","2.0.0","873075","672f61c0e551b93afb8cf779","1","46","5577","","","","","","","","","<img src= rock_img/I_Pegmatite_12.jpg style=""width:8cm; height:5.7cm;""><p style='font-size: 30px; color: red;'><strong>Incorrect!</strong></p><p style='font-size: 30px;'><strong>This rock is pegmatite</strong></p>","0","corr_feedback","1","train","9","","","","","","","",""
"","","","","","","","","","","","html-button-response","123","2.0.0","874626","672f61c0e551b93afb8cf779","1","46","1548","","","","","","","","","<img src= ""rock_img/I_Obsidian_08.jpg"" style=""width:8cm; height:7.39cm;""><p>What type of rock is this?</p>","4","class_response","1","train","10","Obsidian","Obsidian","08","true","5","5","",""
"","","","","","","","","","","","html-button-response","124","2.0.0","878418","672f61c0e551b93afb8cf779","1","46","3788","","","","","","","","","<img src= rock_img/I_Obsidian_08.jpg style=""width:8cm; height:7.39cm;""><p style='font-size: 30px; color: green;'><strong>Correct!</strong></p><p style='font-size: 30px;'><strong>This rock is obsidian</strong></p>","0","corr_feedback","1","train","10","","","","","","","",""
"","","","","","","","","","","","html-button-response","125","2.0.0","880299","672f61c0e551b93afb8cf779","1","46","1878","","","","","","","","","<img src= ""rock_img/I_Pegmatite_07.jpg"" style=""width:8cm; height:6.7cm;""><p>What type of rock is this?</p>","2","class_response","1","train","11","Diorite","Pegmatite","07","false","3","6","",""
"","","","","","","","","","","","html-button-response","126","2.0.0","886292","672f61c0e551b93afb8cf779","1","46","5989","","","","","","","","","<img src= rock_img/I_Pegmatite_07.jpg style=""width:8cm; height:6.7cm;""><p style='font-size: 30px; color: red;'><strong>Incorrect!</strong></p><p style='font-size: 30px;'><strong>This rock is pegmatite</strong></p>","0","corr_feedback","1","train","11","","","","","","","",""
"","","","","","","","","","","","html-button-response","127","2.0.0","887951","672f61c0e551b93afb8cf779","1","46","1655","","","","","","","","","<img src= ""rock_img/I_Gabbro_05.jpg"" style=""width:8cm; height:6cm;""><p>What type of rock is this?</p>","0","class_response","1","train","12","Andesite","Gabbro","05","false","1","4","",""
"","","","","","","","","","","","html-button-response","128","2.0.0","894040","672f61c0e551b93afb8cf779","1","46","6085","","","","","","","","","<img src= rock_img/I_Gabbro_05.jpg style=""width:8cm; height:6cm;""><p style='font-size: 30px; color: red;'><strong>Incorrect!</strong></p><p style='font-size: 30px;'><strong>This rock is gabbro</strong></p>","0","corr_feedback","1","train","12","","","","","","","",""
"","","","","","","","","","","","html-button-response","129","2.0.0","895678","672f61c0e551b93afb8cf779","1","46","1635","","","","","","","","","<img src= ""rock_img/I_Gabbro_03.jpg"" style=""width:8cm; height:8.52cm;""><p>What type of rock is this?</p>","1","class_response","1","train","13","Basalt","Gabbro","03","false","2","4","",""
"","","","","","","","","","","","html-button-response","130","2.0.0","900660","672f61c0e551b93afb8cf779","1","46","4981","","","","","","","","","<img src= rock_img/I_Gabbro_03.jpg style=""width:8cm; height:8.52cm;""><p style='font-size: 30px; color: red;'><strong>Incorrect!</strong></p><p style='font-size: 30px;'><strong>This rock is gabbro</strong></p>","0","corr_feedback","1","train","13","","","","","","","",""
"","","","","","","","","","","","html-button-response","131","2.0.0","902623","672f61c0e551b93afb8cf779","1","46","1959","","","","","","","","","<img src= ""rock_img/I_Obsidian_07.jpg"" style=""width:8cm; height:4.76cm;""><p>What type of rock is this?</p>","4","class_response","1","train","14","Obsidian","Obsidian","07","true","5","5","",""
"","","","","","","","","","","","html-button-response","132","2.0.0","907892","672f61c0e551b93afb8cf779","1","46","5265","","","","","","","","","<img src= rock_img/I_Obsidian_07.jpg style=""width:8cm; height:4.76cm;""><p style='font-size: 30px; color: green;'><strong>Correct!</strong></p><p style='font-size: 30px;'><strong>This rock is obsidian</strong></p>","0","corr_feedback","1","train","14","","","","","","","",""
"","","","","","","","","","","","html-button-response","133","2.0.0","911764","672f61c0e551b93afb8cf779","1","46","3868","","","","","","","","","<img src= ""rock_img/I_Gabbro_14.jpg"" style=""width:8cm; height:8.48cm;""><p>What type of rock is this?</p>","5","class_response","1","train","15","Pegmatite","Gabbro","14","false","6","4","",""
"","","","","","","","","","","","html-button-response","134","2.0.0","917383","672f61c0e551b93afb8cf779","1","46","5617","","","","","","","","","<img src= rock_img/I_Gabbro_14.jpg style=""width:8cm; height:8.48cm;""><p style='font-size: 30px; color: red;'><strong>Incorrect!</strong></p><p style='font-size: 30px;'><strong>This rock is gabbro</strong></p>","0","corr_feedback","1","train","15","","","","","","","",""
"","","","","","","","","","","","html-button-response","135","2.0.0","921804","672f61c0e551b93afb8cf779","1","46","4417","","","","","","","","","<img src= ""rock_img/I_Pegmatite_13.jpg"" style=""width:8cm; height:4.95cm;""><p>What type of rock is this?</p>","3","class_response","1","train","16","Gabbro","Pegmatite","13","false","4","6","",""
"","","","","","","","","","","","html-button-response","136","2.0.0","927888","672f61c0e551b93afb8cf779","1","46","6080","","","","","","","","","<img src= rock_img/I_Pegmatite_13.jpg style=""width:8cm; height:4.95cm;""><p style='font-size: 30px; color: red;'><strong>Incorrect!</strong></p><p style='font-size: 30px;'><strong>This rock is pegmatite</strong></p>","0","corr_feedback","1","train","16","","","","","","","",""
"","","","","","","","","","","","html-button-response","137","2.0.0","929591","672f61c0e551b93afb8cf779","1","46","1700","","","","","","","","","<img src= ""rock_img/I_Diorite_15.jpg"" style=""width:8cm; height:5.54cm;""><p>What type of rock is this?</p>","1","class_response","1","train","17","Basalt","Diorite","15","false","2","3","",""
"","","","","","","","","","","","html-button-response","138","2.0.0","934456","672f61c0e551b93afb8cf779","1","46","4863","","","","","","","","","<img src= rock_img/I_Diorite_15.jpg style=""width:8cm; height:5.54cm;""><p style='font-size: 30px; color: red;'><strong>Incorrect!</strong></p><p style='font-size: 30px;'><strong>This rock is diorite</strong></p>","0","corr_feedback","1","train","17","","","","","","","",""
"","","","","","","","","","","","html-button-response","139","2.0.0","936784","672f61c0e551b93afb8cf779","1","46","2325","","","","","","","","","<img src= ""rock_img/I_Basalt_10.jpg"" style=""width:8cm; height:5.85cm;""><p>What type of rock is this?</p>","4","class_response","1","train","18","Obsidian","Basalt","10","false","5","2","",""
"","","","","","","","","","","","html-button-response","140","2.0.0","942023","672f61c0e551b93afb8cf779","1","46","5236","","","","","","","","","<img src= rock_img/I_Basalt_10.jpg style=""width:8cm; height:5.85cm;""><p style='font-size: 30px; color: red;'><strong>Incorrect!</strong></p><p style='font-size: 30px;'><strong>This rock is basalt</strong></p>","0","corr_feedback","1","train","18","","","","","","","",""
"","","","","","","","","","","","html-button-response","141","2.0.0","944594","672f61c0e551b93afb8cf779","1","46","2568","","","","","","","","","<img src= ""rock_img/I_Pegmatite_10.jpg"" style=""width:8cm; height:4.16cm;""><p>What type of rock is this?</p>","5","class_response","1","train","19","Pegmatite","Pegmatite","10","true","6","6","",""
"","","","","","","","","","","","html-button-response","142","2.0.0","947577","672f61c0e551b93afb8cf779","1","46","2981","","","","","","","","","<img src= rock_img/I_Pegmatite_10.jpg style=""width:8cm; height:4.16cm;""><p style='font-size: 30px; color: green;'><strong>Correct!</strong></p><p style='font-size: 30px;'><strong>This rock is pegmatite</strong></p>","0","corr_feedback","1","train","19","","","","","","","",""
"","","","","","","","","","","","html-button-response","143","2.0.0","949266","672f61c0e551b93afb8cf779","1","46","1686","","","","","","","","","<img src= ""rock_img/I_Basalt_02.jpg"" style=""width:8cm; height:6.45cm;""><p>What type of rock is this?</p>","1","class_response","1","train","20","Basalt","Basalt","02","true","2","2","",""
"","","","","","","","","","","","html-button-response","144","2.0.0","950680","672f61c0e551b93afb8cf779","1","46","1411","","","","","","","","","<img src= rock_img/I_Basalt_02.jpg style=""width:8cm; height:6.45cm;""><p style='font-size: 30px; color: green;'><strong>Correct!</strong></p><p style='font-size: 30px;'><strong>This rock is basalt</strong></p>","0","corr_feedback","1","train","20","","","","","","","",""
"","","","","","","","","","","","html-button-response","145","2.0.0","952160","672f61c0e551b93afb8cf779","1","46","1477","","","","","","","","","<img src= ""rock_img/I_Andesite_06.jpg"" style=""width:8cm; height:6.840000000000001cm;""><p>What type of rock is this?</p>","0","class_response","1","train","21","Andesite","Andesite","06","true","1","1","",""
"","","","","","","","","","","","html-button-response","146","2.0.0","957024","672f61c0e551b93afb8cf779","1","46","4861","","","","","","","","","<img src= rock_img/I_Andesite_06.jpg style=""width:8cm; height:6.840000000000001cm;""><p style='font-size: 30px; color: green;'><strong>Correct!</strong></p><p style='font-size: 30px;'><strong>This rock is andesite</strong></p>","0","corr_feedback","1","train","21","","","","","","","",""
"","","","","","","","","","","","html-button-response","147","2.0.0","958429","672f61c0e551b93afb8cf779","1","46","1400","","","","","","","","","<img src= ""rock_img/I_Pumice_13.jpg"" style=""width:8cm; height:8.200000000000001cm;""><p>What type of rock is this?</p>","1","class_response","1","train","22","Basalt","Pumice","13","false","2","8","",""
"","","","","","","","","","","","html-button-response","148","2.0.0","964544","672f61c0e551b93afb8cf779","1","46","6112","","","","","","","","","<img src= rock_img/I_Pumice_13.jpg style=""width:8cm; height:8.200000000000001cm;""><p style='font-size: 30px; color: red;'><strong>Incorrect!</strong></p><p style='font-size: 30px;'><strong>This rock is pumice</strong></p>","0","corr_feedback","1","train","22","","","","","","","",""
"","","","","","","","","","","","html-button-response","149","2.0.0","968552","672f61c0e551b93afb8cf779","1","46","4004","","","","","","","","","<img src= ""rock_img/I_Pumice_10.jpg"" style=""width:8cm; height:7.609999999999999cm;""><p>What type of rock is this?</p>","7","class_response","1","train","23","Pumice","Pumice","10","true","8","8","",""
"","","","","","","","","","","","html-button-response","150","2.0.0","970472","672f61c0e551b93afb8cf779","1","46","1916","","","","","","","","","<img src= rock_img/I_Pumice_10.jpg style=""width:8cm; height:7.609999999999999cm;""><p style='font-size: 30px; color: green;'><strong>Correct!</strong></p><p style='font-size: 30px;'><strong>This rock is pumice</strong></p>","0","corr_feedback","1","train","23","","","","","","","",""
"","","","","","","","","","","","html-button-response","151","2.0.0","972196","672f61c0e551b93afb8cf779","1","46","1721","","","","","","","","","<img src= ""rock_img/I_Pumice_02.jpg"" style=""width:8cm; height:7.3999999999999995cm;""><p>What type of rock is this?</p>","7","class_response","1","train","24","Pumice","Pumice","02","true","8","8","",""
"","","","","","","","","","","","html-button-response","152","2.0.0","974192","672f61c0e551b93afb8cf779","1","46","1994","","","","","","","","","<img src= rock_img/I_Pumice_02.jpg style=""width:8cm; height:7.3999999999999995cm;""><p style='font-size: 30px; color: green;'><strong>Correct!</strong></p><p style='font-size: 30px;'><strong>This rock is pumice</strong></p>","0","corr_feedback","1","train","24","","","","","","","",""
"","","","","","","","","","","","html-button-response","153","2.0.0","976213","672f61c0e551b93afb8cf779","1","46","2017","","","","","","","","","<img src= ""rock_img/I_Peridotite_06.jpg"" style=""width:8cm; height:7.53cm;""><p>What type of rock is this?</p>","5","class_response","1","train","25","Pegmatite","Peridotite","06","false","6","7","",""
"","","","","","","","","","","","html-button-response","154","2.0.0","982317","672f61c0e551b93afb8cf779","1","46","6100","","","","","","","","","<img src= rock_img/I_Peridotite_06.jpg style=""width:8cm; height:7.53cm;""><p style='font-size: 30px; color: red;'><strong>Incorrect!</strong></p><p style='font-size: 30px;'><strong>This rock is peridotite</strong></p>","0","corr_feedback","1","train","25","","","","","","","",""
"","","","","","","","","","","","html-button-response","155","2.0.0","985751","672f61c0e551b93afb8cf779","1","46","3431","","","","","","","","","<img src= ""rock_img/I_Pumice_05.jpg"" style=""width:8cm; height:7.25cm;""><p>What type of rock is this?</p>","7","class_response","1","train","26","Pumice","Pumice","05","true","8","8","",""
"","","","","","","","","","","","html-button-response","156","2.0.0","987408","672f61c0e551b93afb8cf779","1","46","1655","","","","","","","","","<img src= rock_img/I_Pumice_05.jpg style=""width:8cm; height:7.25cm;""><p style='font-size: 30px; color: green;'><strong>Correct!</strong></p><p style='font-size: 30px;'><strong>This rock is pumice</strong></p>","0","corr_feedback","1","train","26","","","","","","","",""
"","","","","","","","","","","","html-button-response","157","2.0.0","989444","672f61c0e551b93afb8cf779","1","46","2032","","","","","","","","","<img src= ""rock_img/I_Diorite_07.jpg"" style=""width:8cm; height:5.239999999999999cm;""><p>What type of rock is this?</p>","5","class_response","1","train","27","Pegmatite","Diorite","07","false","6","3","",""
"","","","","","","","","","","","html-button-response","158","2.0.0","995831","672f61c0e551b93afb8cf779","1","46","6384","","","","","","","","","<img src= rock_img/I_Diorite_07.jpg style=""width:8cm; height:5.239999999999999cm;""><p style='font-size: 30px; color: red;'><strong>Incorrect!</strong></p><p style='font-size: 30px;'><strong>This rock is diorite</strong></p>","0","corr_feedback","1","train","27","","","","","","","",""
"","","","","","","","","","","","html-button-response","159","2.0.0","997981","672f61c0e551b93afb8cf779","1","46","2148","","","","","","","","","<img src= ""rock_img/I_Pumice_15.jpg"" style=""width:8cm; height:7.86cm;""><p>What type of rock is this?</p>","7","class_response","1","train","28","Pumice","Pumice","15","true","8","8","",""
"","","","","","","","","","","","html-button-response","160","2.0.0","1000357","672f61c0e551b93afb8cf779","1","46","2373","","","","","","","","","<img src= rock_img/I_Pumice_15.jpg style=""width:8cm; height:7.86cm;""><p style='font-size: 30px; color: green;'><strong>Correct!</strong></p><p style='font-size: 30px;'><strong>This rock is pumice</strong></p>","0","corr_feedback","1","train","28","","","","","","","",""
"","","","","","","","","","","","html-button-response","161","2.0.0","1002041","672f61c0e551b93afb8cf779","1","46","1681","","","","","","","","","<img src= ""rock_img/I_Andesite_09.jpg"" style=""width:8cm; height:6cm;""><p>What type of rock is this?</p>","1","class_response","1","train","29","Basalt","Andesite","09","false","2","1","",""
"","","","","","","","","","","","html-button-response","162","2.0.0","1007265","672f61c0e551b93afb8cf779","1","46","5221","","","","","","","","","<img src= rock_img/I_Andesite_09.jpg style=""width:8cm; height:6cm;""><p style='font-size: 30px; color: red;'><strong>Incorrect!</strong></p><p style='font-size: 30px;'><strong>This rock is andesite</strong></p>","0","corr_feedback","1","train","29","","","","","","","",""
"","","","","","","","","","","","html-button-response","163","2.0.0","1009309","672f61c0e551b93afb8cf779","1","46","2040","","","","","","","","","<img src= ""rock_img/I_Obsidian_04.jpg"" style=""width:8cm; height:6.930000000000001cm;""><p>What type of rock is this?</p>","4","class_response","1","train","30","Obsidian","Obsidian","04","true","5","5","",""
"","","","","","","","","","","","html-button-response","164","2.0.0","1011464","672f61c0e551b93afb8cf779","1","46","2153","","","","","","","","","<img src= rock_img/I_Obsidian_04.jpg style=""width:8cm; height:6.930000000000001cm;""><p style='font-size: 30px; color: green;'><strong>Correct!</strong></p><p style='font-size: 30px;'><strong>This rock is obsidian</strong></p>","0","corr_feedback","1","train","30","","","","","","","",""
"","","","","","","","","","","","html-button-response","165","2.0.0","1015797","672f61c0e551b93afb8cf779","1","46","4329","","","","","","","","","<img src= ""rock_img/I_Obsidian_14.jpg"" style=""width:8cm; height:7.64cm;""><p>What type of rock is this?</p>","4","class_response","1","train","31","Obsidian","Obsidian","14","true","5","5","",""
"","","","","","","","","","","","html-button-response","166","2.0.0","1017065","672f61c0e551b93afb8cf779","1","46","1266","","","","","","","","","<img src= rock_img/I_Obsidian_14.jpg style=""width:8cm; height:7.64cm;""><p style='font-size: 30px; color: green;'><strong>Correct!</strong></p><p style='font-size: 30px;'><strong>This rock is obsidian</strong></p>","0","corr_feedback","1","train","31","","","","","","","",""
"","","","","","","","","","","","html-button-response","167","2.0.0","1019662","672f61c0e551b93afb8cf779","1","46","2593","","","","","","","","","<img src= ""rock_img/I_Andesite_07.jpg"" style=""width:8cm; height:5.93cm;""><p>What type of rock is this?</p>","6","class_response","1","train","32","Peridotite","Andesite","07","false","7","1","",""
"","","","","","","","","","","","html-button-response","168","2.0.0","1024121","672f61c0e551b93afb8cf779","1","46","4456","","","","","","","","","<img src= rock_img/I_Andesite_07.jpg style=""width:8cm; height:5.93cm;""><p style='font-size: 30px; color: red;'><strong>Incorrect!</strong></p><p style='font-size: 30px;'><strong>This rock is andesite</strong></p>","0","corr_feedback","1","train","32","","","","","","","",""
"","","","","","","","","","","","html-button-response","169","2.0.0","1026118","672f61c0e551b93afb8cf779","1","46","1993","","","","","","","","","<img src= ""rock_img/I_Pegmatite_08.jpg"" style=""width:8cm; height:7.68cm;""><p>What type of rock is this?</p>","4","class_response","1","train","33","Obsidian","Pegmatite","08","false","5","6","",""
"","","","","","","","","","","","html-button-response","170","2.0.0","1029801","672f61c0e551b93afb8cf779","1","46","3680","","","","","","","","","<img src= rock_img/I_Pegmatite_08.jpg style=""width:8cm; height:7.68cm;""><p style='font-size: 30px; color: red;'><strong>Incorrect!</strong></p><p style='font-size: 30px;'><strong>This rock is pegmatite</strong></p>","0","corr_feedback","1","train","33","","","","","","","",""
"","","","","","","","","","","","html-button-response","171","2.0.0","1033253","672f61c0e551b93afb8cf779","1","46","3449","","","","","","","","","<img src= ""rock_img/I_Peridotite_08.jpg"" style=""width:8cm; height:6.7cm;""><p>What type of rock is this?</p>","0","class_response","1","train","34","Andesite","Peridotite","08","false","1","7","",""
"","","","","","","","","","","","html-button-response","172","2.0.0","1036478","672f61c0e551b93afb8cf779","1","46","3221","","","","","","","","","<img src= rock_img/I_Peridotite_08.jpg style=""width:8cm; height:6.7cm;""><p style='font-size: 30px; color: red;'><strong>Incorrect!</strong></p><p style='font-size: 30px;'><strong>This rock is peridotite</strong></p>","0","corr_feedback","1","train","34","","","","","","","",""
"","","","","","","","","","","","html-button-response","173","2.0.0","1040866","672f61c0e551b93afb8cf779","1","46","4384","","","","","","","","","<img src= ""rock_img/I_Diorite_11.jpg"" style=""width:8cm; height:7.11cm;""><p>What type of rock is this?</p>","3","class_response","1","train","35","Gabbro","Diorite","11","false","4","3","",""
"","","","","","","","","","","","html-button-response","174","2.0.0","1042489","672f61c0e551b93afb8cf779","1","46","1621","","","","","","","","","<img src= rock_img/I_Diorite_11.jpg style=""width:8cm; height:7.11cm;""><p style='font-size: 30px; color: red;'><strong>Incorrect!</strong></p><p style='font-size: 30px;'><strong>This rock is diorite</strong></p>","0","corr_feedback","1","train","35","","","","","","","",""
"","","","","","","","","","","","html-button-response","175","2.0.0","1044913","672f61c0e551b93afb8cf779","1","46","2420","","","","","","","","","<img src= ""rock_img/I_Peridotite_15.jpg"" style=""width:8cm; height:6cm;""><p>What type of rock is this?</p>","2","class_response","1","train","36","Diorite","Peridotite","15","false","3","7","",""
"","","","","","","","","","","","html-button-response","176","2.0.0","1046837","672f61c0e551b93afb8cf779","1","46","1921","","","","","","","","","<img src= rock_img/I_Peridotite_15.jpg style=""width:8cm; height:6cm;""><p style='font-size: 30px; color: red;'><strong>Incorrect!</strong></p><p style='font-size: 30px;'><strong>This rock is peridotite</strong></p>","0","corr_feedback","1","train","36","","","","","","","",""
"","","","","","","","","","","","html-button-response","177","2.0.0","1048678","672f61c0e551b93afb8cf779","1","46","1837","","","","","","","","","<img src= ""rock_img/I_Andesite_01.jpg"" style=""width:8cm; height:5.87cm;""><p>What type of rock is this?</p>","3","class_response","1","train","37","Gabbro","Andesite","01","false","4","1","",""
"","","","","","","","","","","","html-button-response","178","2.0.0","1049800","672f61c0e551b93afb8cf779","1","46","1119","","","","","","","","","<img src= rock_img/I_Andesite_01.jpg style=""width:8cm; height:5.87cm;""><p style='font-size: 30px; color: red;'><strong>Incorrect!</strong></p><p style='font-size: 30px;'><strong>This rock is andesite</strong></p>","0","corr_feedback","1","train","37","","","","","","","",""
"","","","","","","","","","","","html-button-response","179","2.0.0","1052011","672f61c0e551b93afb8cf779","1","46","2207","","","","","","","","","<img src= ""rock_img/I_Pegmatite_03.jpg"" style=""width:8cm; height:5.239999999999999cm;""><p>What type of rock is this?</p>","7","class_response","1","train","38","Pumice","Pegmatite","03","false","8","6","",""
"","","","","","","","","","","","html-button-response","180","2.0.0","1053573","672f61c0e551b93afb8cf779","1","46","1560","","","","","","","","","<img src= rock_img/I_Pegmatite_03.jpg style=""width:8cm; height:5.239999999999999cm;""><p style='font-size: 30px; color: red;'><strong>Incorrect!</strong></p><p style='font-size: 30px;'><strong>This rock is pegmatite</strong></p>","0","corr_feedback","1","train","38","","","","","","","",""
"","","","","","","","","","","","html-button-response","181","2.0.0","1055814","672f61c0e551b93afb8cf779","1","46","2238","","","","","","","","","<img src= ""rock_img/I_Basalt_14.jpg"" style=""width:8cm; height:5.82cm;""><p>What type of rock is this?</p>","1","class_response","1","train","39","Basalt","Basalt","14","true","2","2","",""
"","","","","","","","","","","","html-button-response","182","2.0.0","1056920","672f61c0e551b93afb8cf779","1","46","1104","","","","","","","","","<img src= rock_img/I_Basalt_14.jpg style=""width:8cm; height:5.82cm;""><p style='font-size: 30px; color: green;'><strong>Correct!</strong></p><p style='font-size: 30px;'><strong>This rock is basalt</strong></p>","0","corr_feedback","1","train","39","","","","","","","",""
"","","","","","","","","","","","html-button-response","183","2.0.0","1058997","672f61c0e551b93afb8cf779","1","46","2076","","","","","","","","","<img src= ""rock_img/I_Peridotite_04.jpg"" style=""width:8cm; height:6.680000000000001cm;""><p>What type of rock is this?</p>","5","class_response","1","train","40","Pegmatite","Peridotite","04","false","6","7","",""
"","","","","","","","","","","","html-button-response","184","2.0.0","1060298","672f61c0e551b93afb8cf779","1","46","1297","","","","","","","","","<img src= rock_img/I_Peridotite_04.jpg style=""width:8cm; height:6.680000000000001cm;""><p style='font-size: 30px; color: red;'><strong>Incorrect!</strong></p><p style='font-size: 30px;'><strong>This rock is peridotite</strong></p>","0","corr_feedback","1","train","40","","","","","","","",""
"","","","","","","","","","","","html-button-response","185","2.0.0","1061557","672f61c0e551b93afb8cf779","1","46","1256","","","","","","","","","<img src= ""rock_img/I_Gabbro_16.jpg"" style=""width:8cm; height:6.44cm;""><p>What type of rock is this?</p>","1","class_response","1","train","41","Basalt","Gabbro","16","false","2","4","",""
"","","","","","","","","","","","html-button-response","186","2.0.0","1063965","672f61c0e551b93afb8cf779","1","46","2405","","","","","","","","","<img src= rock_img/I_Gabbro_16.jpg style=""width:8cm; height:6.44cm;""><p style='font-size: 30px; color: red;'><strong>Incorrect!</strong></p><p style='font-size: 30px;'><strong>This rock is gabbro</strong></p>","0","corr_feedback","1","train","41","","","","","","","",""
"","","","","","","","","","","","html-button-response","187","2.0.0","1066762","672f61c0e551b93afb8cf779","1","46","2793","","","","","","","","","<img src= ""rock_img/I_Diorite_02.jpg"" style=""width:8cm; height:6.27cm;""><p>What type of rock is this?</p>","0","class_response","1","train","42","Andesite","Diorite","02","false","1","3","",""
"","","","","","","","","","","","html-button-response","188","2.0.0","1067854","672f61c0e551b93afb8cf779","1","46","1089","","","","","","","","","<img src= rock_img/I_Diorite_02.jpg style=""width:8cm; height:6.27cm;""><p style='font-size: 30px; color: red;'><strong>Incorrect!</strong></p><p style='font-size: 30px;'><strong>This rock is diorite</strong></p>","0","corr_feedback","1","train","42","","","","","","","",""
"","","","","","","","","","","","html-button-response","189","2.0.0","1070762","672f61c0e551b93afb8cf779","1","46","2904","","","","","","","","","<img src= ""rock_img/I_Diorite_06.jpg"" style=""width:8cm; height:6.03cm;""><p>What type of rock is this?</p>","2","class_response","1","train","43","Diorite","Diorite","06","true","3","3","",""
"","","","","","","","","","","","html-button-response","190","2.0.0","1071910","672f61c0e551b93afb8cf779","1","46","1145","","","","","","","","","<img src= rock_img/I_Diorite_06.jpg style=""width:8cm; height:6.03cm;""><p style='font-size: 30px; color: green;'><strong>Correct!</strong></p><p style='font-size: 30px;'><strong>This rock is diorite</strong></p>","0","corr_feedback","1","train","43","","","","","","","",""
"","","","","","","","","","","","html-button-response","191","2.0.0","1073542","672f61c0e551b93afb8cf779","1","46","1629","","","","","","","","","<img src= ""rock_img/I_Pumice_06.jpg"" style=""width:8cm; height:6.9399999999999995cm;""><p>What type of rock is this?</p>","1","class_response","1","train","44","Basalt","Pumice","06","false","2","8","",""
"","","","","","","","","","","","html-button-response","192","2.0.0","1074810","672f61c0e551b93afb8cf779","1","46","1265","","","","","","","","","<img src= rock_img/I_Pumice_06.jpg style=""width:8cm; height:6.9399999999999995cm;""><p style='font-size: 30px; color: red;'><strong>Incorrect!</strong></p><p style='font-size: 30px;'><strong>This rock is pumice</strong></p>","0","corr_feedback","1","train","44","","","","","","","",""
"","","","","","","","","","","","html-button-response","193","2.0.0","1077178","672f61c0e551b93afb8cf779","1","46","2364","","","","","","","","","<img src= ""rock_img/I_Diorite_14.jpg"" style=""width:8cm; height:5.71cm;""><p>What type of rock is this?</p>","5","class_response","1","train","45","Pegmatite","Diorite","14","false","6","3","",""
"","","","","","","","","","","","html-button-response","194","2.0.0","1078261","672f61c0e551b93afb8cf779","1","46","1081","","","","","","","","","<img src= rock_img/I_Diorite_14.jpg style=""width:8cm; height:5.71cm;""><p style='font-size: 30px; color: red;'><strong>Incorrect!</strong></p><p style='font-size: 30px;'><strong>This rock is diorite</strong></p>","0","corr_feedback","1","train","45","","","","","","","",""
"","","","","","","","","","","","html-button-response","195","2.0.0","1080985","672f61c0e551b93afb8cf779","1","46","2721","","","","","","","","","<img src= ""rock_img/I_Gabbro_09.jpg"" style=""width:8cm; height:7.279999999999999cm;""><p>What type of rock is this?</p>","0","class_response","1","train","46","Andesite","Gabbro","09","false","1","4","",""
"","","","","","","","","","","","html-button-response","196","2.0.0","1082293","672f61c0e551b93afb8cf779","1","46","1305","","","","","","","","","<img src= rock_img/I_Gabbro_09.jpg style=""width:8cm; height:7.279999999999999cm;""><p style='font-size: 30px; color: red;'><strong>Incorrect!</strong></p><p style='font-size: 30px;'><strong>This rock is gabbro</strong></p>","0","corr_feedback","1","train","46","","","","","","","",""
"","","","","","","","","","","","html-button-response","197","2.0.0","1083787","672f61c0e551b93afb8cf779","1","46","1491","","","","","","","","","<img src= ""rock_img/I_Peridotite_13.jpg"" style=""width:8cm; height:7.58cm;""><p>What type of rock is this?</p>","2","class_response","1","train","47","Diorite","Peridotite","13","false","3","7","",""
"","","","","","","","","","","","html-button-response","198","2.0.0","1085010","672f61c0e551b93afb8cf779","1","46","1221","","","","","","","","","<img src= rock_img/I_Peridotite_13.jpg style=""width:8cm; height:7.58cm;""><p style='font-size: 30px; color: red;'><strong>Incorrect!</strong></p><p style='font-size: 30px;'><strong>This rock is peridotite</strong></p>","0","corr_feedback","1","train","47","","","","","","","",""
"","","","","","","","","","","","html-button-response","199","2.0.0","1089542","672f61c0e551b93afb8cf779","1","46","4528","","","","","","","","","<img src= ""rock_img/I_Andesite_10.jpg"" style=""width:8cm; height:4.16cm;""><p>What type of rock is this?</p>","1","class_response","1","train","48","Basalt","Andesite","10","false","2","1","",""
"","","","","","","","","","","","html-button-response","200","2.0.0","1090549","672f61c0e551b93afb8cf779","1","46","1004","","","","","","","","","<img src= rock_img/I_Andesite_10.jpg style=""width:8cm; height:4.16cm;""><p style='font-size: 30px; color: red;'><strong>Incorrect!</strong></p><p style='font-size: 30px;'><strong>This rock is andesite</strong></p>","0","corr_feedback","1","train","48","","","","","","","",""
"","","","","","","","","","","","instructions","203","2.0.0","1268658","672f61c0e551b93afb8cf779","1","46","178105","","","","","","","","[{""page_index"":0,""viewing_time"":3942},{""page_index"":1,""viewing_time"":174160}]","","","","","","","","","","","","","",""
"","","","","","","","","","","","html-button-response","204","2.0.0","1270192","672f61c0e551b93afb8cf779","1","46","1532","","","","","","","","","","0","start_test","","","","","","","","","","",""
"","","","","","","","","","","","html-button-response","205","2.0.0","1276308","672f61c0e551b93afb8cf779","1","46","6111","","","","","","","","","<img src= ""rock_img/I_Pumice_08.jpg"" style=""width:8cm; height:6.67cm;""><p>What type of rock is this?</p>","7","class_response","1","test","1","Pumice","Pumice","08","true","8","8","",""
"","","","","","","","","","","","html-keyboard-response","206","2.0.0","1276811","672f61c0e551b93afb8cf779","1","46","null","","","","","","","","","<p style='font-size: 30px;'><strong>Okay</strong></p>","null","neutral_feedback","1","test","1","","","","","","","",""
"","","","","","","","","","","","html-button-response","207","2.0.0","1278540","672f61c0e551b93afb8cf779","1","46","1725","","","","","","","","","<img src= ""rock_img/I_Gabbro_01.jpg"" style=""width:8cm; height:5.21cm;""><p>What type of rock is this?</p>","1","class_response","1","test","2","Basalt","Gabbro","01","false","2","4","",""
"","","","","","","","","","","","html-keyboard-response","208","2.0.0","1279044","672f61c0e551b93afb8cf779","1","46","null","","","","","","","","","<p style='font-size: 30px;'><strong>Okay</strong></p>","null","neutral_feedback","1","test","2","","","","","","","",""
"","","","","","","","","","","","html-button-response","209","2.0.0","1281137","672f61c0e551b93afb8cf779","1","46","2089","","","","","","","","","<img src= ""rock_img/I_Gabbro_11.jpg"" style=""width:8cm; height:6.2cm;""><p>What type of rock is this?</p>","2","class_response","1","test","3","Diorite","Gabbro","11","false","3","4","",""
"","","","","","","","","","","","html-keyboard-response","210","2.0.0","1281641","672f61c0e551b93afb8cf779","1","46","null","","","","","","","","","<p style='font-size: 30px;'><strong>Okay</strong></p>","null","neutral_feedback","1","test","3","","","","","","","",""
"","","","","","","","","","","","html-button-response","211","2.0.0","1283833","672f61c0e551b93afb8cf779","1","46","2189","","","","","","","","","<img src= ""rock_img/I_Pumice_03.jpg"" style=""width:8cm; height:6.64cm;""><p>What type of rock is this?</p>","7","class_response","1","test","4","Pumice","Pumice","03","true","8","8","",""
"","","","","","","","","","","","html-keyboard-response","212","2.0.0","1284337","672f61c0e551b93afb8cf779","1","46","null","","","","","","","","","<p style='font-size: 30px;'><strong>Okay</strong></p>","null","neutral_feedback","1","test","4","","","","","","","",""
"","","","","","","","","","","","html-button-response","213","2.0.0","1287108","672f61c0e551b93afb8cf779","1","46","2767","","","","","","","","","<img src= ""rock_img/I_Diorite_16.jpg"" style=""width:8cm; height:6.74cm;""><p>What type of rock is this?</p>","3","class_response","1","test","5","Gabbro","Diorite","16","false","4","3","",""
"","","","","","","","","","","","html-keyboard-response","214","2.0.0","1287613","672f61c0e551b93afb8cf779","1","46","null","","","","","","","","","<p style='font-size: 30px;'><strong>Okay</strong></p>","null","neutral_feedback","1","test","5","","","","","","","",""
"","","","","","","","","","","","html-button-response","215","2.0.0","1290889","672f61c0e551b93afb8cf779","1","46","3273","","","","","","","","","<img src= ""rock_img/I_Diorite_13.jpg"" style=""width:8cm; height:6.29cm;""><p>What type of rock is this?</p>","5","class_response","1","test","6","Pegmatite","Diorite","13","false","6","3","",""
"","","","","","","","","","","","html-keyboard-response","216","2.0.0","1291393","672f61c0e551b93afb8cf779","1","46","null","","","","","","","","","<p style='font-size: 30px;'><strong>Okay</strong></p>","null","neutral_feedback","1","test","6","","","","","","","",""
"","","","","","","","","","","","html-button-response","217","2.0.0","1293590","672f61c0e551b93afb8cf779","1","46","2194","","","","","","","","","<img src= ""rock_img/I_Gabbro_08.jpg"" style=""width:8cm; height:5.15cm;""><p>What type of rock is this?</p>","0","class_response","1","test","7","Andesite","Gabbro","08","false","1","4","",""
"","","","","","","","","","","","html-keyboard-response","218","2.0.0","1294093","672f61c0e551b93afb8cf779","1","46","null","","","","","","","","","<p style='font-size: 30px;'><strong>Okay</strong></p>","null","neutral_feedback","1","test","7","","","","","","","",""
"","","","","","","","","","","","html-button-response","219","2.0.0","1296137","672f61c0e551b93afb8cf779","1","46","2041","","","","","","","","","<img src= ""rock_img/I_Andesite_04.jpg"" style=""width:8cm; height:5.96cm;""><p>What type of rock is this?</p>","0","class_response","1","test","8","Andesite","Andesite","04","true","1","1","",""
"","","","","","","","","","","","html-keyboard-response","220","2.0.0","1296641","672f61c0e551b93afb8cf779","1","46","null","","","","","","","","","<p style='font-size: 30px;'><strong>Okay</strong></p>","null","neutral_feedback","1","test","8","","","","","","","",""
"","","","","","","","","","","","html-button-response","221","2.0.0","1298001","672f61c0e551b93afb8cf779","1","46","1358","","","","","","","","","<img src= ""rock_img/I_Gabbro_15.jpg"" style=""width:8cm; height:6.29cm;""><p>What type of rock is this?</p>","3","class_response","1","test","9","Gabbro","Gabbro","15","true","4","4","",""
"","","","","","","","","","","","html-keyboard-response","222","2.0.0","1298505","672f61c0e551b93afb8cf779","1","46","null","","","","","","","","","<p style='font-size: 30px;'><strong>Okay</strong></p>","null","neutral_feedback","1","test","9","","","","","","","",""
"","","","","","","","","","","","html-button-response","223","2.0.0","1300797","672f61c0e551b93afb8cf779","1","46","2288","","","","","","","","","<img src= ""rock_img/I_Diorite_09.jpg"" style=""width:8cm; height:5.27cm;""><p>What type of rock is this?</p>","5","class_response","1","test","10","Pegmatite","Diorite","09","false","6","3","",""
"","","","","","","","","","","","html-keyboard-response","224","2.0.0","1301300","672f61c0e551b93afb8cf779","1","46","null","","","","","","","","","<p style='font-size: 30px;'><strong>Okay</strong></p>","null","neutral_feedback","1","test","10","","","","","","","",""
"","","","","","","","","","","","html-button-response","225","2.0.0","1303301","672f61c0e551b93afb8cf779","1","46","1997","","","","","","","","","<img src= ""rock_img/I_Peridotite_10.jpg"" style=""width:8cm; height:5.390000000000001cm;""><p>What type of rock is this?</p>","5","class_response","1","test","11","Pegmatite","Peridotite","10","false","6","7","",""
"","","","","","","","","","","","html-keyboard-response","226","2.0.0","1303803","672f61c0e551b93afb8cf779","1","46","null","","","","","","","","","<p style='font-size: 30px;'><strong>Okay</strong></p>","null","neutral_feedback","1","test","11","","","","","","","",""
"","","","","","","","","","","","html-button-response","227","2.0.0","1305386","672f61c0e551b93afb8cf779","1","46","1579","","","","","","","","","<img src= ""rock_img/I_Basalt_05.jpg"" style=""width:8cm; height:8.18cm;""><p>What type of rock is this?</p>","1","class_response","1","test","12","Basalt","Basalt","05","true","2","2","",""
"","","","","","","","","","","","html-keyboard-response","228","2.0.0","1305890","672f61c0e551b93afb8cf779","1","46","null","","","","","","","","","<p style='font-size: 30px;'><strong>Okay</strong></p>","null","neutral_feedback","1","test","12","","","","","","","",""
"","","","","","","","","","","","html-button-response","229","2.0.0","1307353","672f61c0e551b93afb8cf779","1","46","1460","","","","","","","","","<img src= ""rock_img/I_Gabbro_12.jpg"" style=""width:8cm; height:7.800000000000001cm;""><p>What type of rock is this?</p>","0","class_response","1","test","13","Andesite","Gabbro","12","false","1","4","",""
"","","","","","","","","","","","html-keyboard-response","230","2.0.0","1307857","672f61c0e551b93afb8cf779","1","46","null","","","","","","","","","<p style='font-size: 30px;'><strong>Okay</strong></p>","null","neutral_feedback","1","test","13","","","","","","","",""
"","","","","","","","","","","","html-button-response","231","2.0.0","1310089","672f61c0e551b93afb8cf779","1","46","2228","","","","","","","","","<img src= ""rock_img/I_Andesite_16.jpg"" style=""width:8cm; height:6.010000000000001cm;""><p>What type of rock is this?</p>","7","class_response","1","test","14","Pumice","Andesite","16","false","8","1","",""
"","","","","","","","","","","","html-keyboard-response","232","2.0.0","1310592","672f61c0e551b93afb8cf779","1","46","null","","","","","","","","","<p style='font-size: 30px;'><strong>Okay</strong></p>","null","neutral_feedback","1","test","14","","","","","","","",""
"","","","","","","","","","","","html-button-response","233","2.0.0","1311753","672f61c0e551b93afb8cf779","1","46","1159","","","","","","","","","<img src= ""rock_img/I_Pumice_14.jpg"" style=""width:8cm; height:6.39cm;""><p>What type of rock is this?</p>","7","class_response","1","test","15","Pumice","Pumice","14","true","8","8","",""
"","","","","","","","","","","","html-keyboard-response","234","2.0.0","1312257","672f61c0e551b93afb8cf779","1","46","null","","","","","","","","","<p style='font-size: 30px;'><strong>Okay</strong></p>","null","neutral_feedback","1","test","15","","","","","","","",""
"","","","","","","","","","","","html-button-response","235","2.0.0","1317186","672f61c0e551b93afb8cf779","1","46","4924","","","","","","","","","<img src= ""rock_img/I_Pegmatite_16.jpg"" style=""width:8cm; height:5.8cm;""><p>What type of rock is this?</p>","6","class_response","1","test","16","Peridotite","Pegmatite","16","false","7","6","",""
"","","","","","","","","","","","html-keyboard-response","236","2.0.0","1317690","672f61c0e551b93afb8cf779","1","46","null","","","","","","","","","<p style='font-size: 30px;'><strong>Okay</strong></p>","null","neutral_feedback","1","test","16","","","","","","","",""
"","","","","","","","","","","","html-button-response","237","2.0.0","1321660","672f61c0e551b93afb8cf779","1","46","3969","","","","","","","","","<img src= ""rock_img/I_Andesite_11.jpg"" style=""width:8cm; height:4.92cm;""><p>What type of rock is this?</p>","2","class_response","1","test","17","Diorite","Andesite","11","false","3","1","",""
"","","","","","","","","","","","html-keyboard-response","238","2.0.0","1322164","672f61c0e551b93afb8cf779","1","46","null","","","","","","","","","<p style='font-size: 30px;'><strong>Okay</strong></p>","null","neutral_feedback","1","test","17","","","","","","","",""
"","","","","","","","","","","","html-button-response","239","2.0.0","1323585","672f61c0e551b93afb8cf779","1","46","1418","","","","","","","","","<img src= ""rock_img/I_Pumice_16.jpg"" style=""width:8cm; height:6.79cm;""><p>What type of rock is this?</p>","7","class_response","1","test","18","Pumice","Pumice","16","true","8","8","",""
"","","","","","","","","","","","html-keyboard-response","240","2.0.0","1324088","672f61c0e551b93afb8cf779","1","46","null","","","","","","","","","<p style='font-size: 30px;'><strong>Okay</strong></p>","null","neutral_feedback","1","test","18","","","","","","","",""
"","","","","","","","","","","","html-button-response","241","2.0.0","1325341","672f61c0e551b93afb8cf779","1","46","1251","","","","","","","","","<img src= ""rock_img/I_Obsidian_02.jpg"" style=""width:8cm; height:7.51cm;""><p>What type of rock is this?</p>","4","class_response","1","test","19","Obsidian","Obsidian","02","true","5","5","",""
"","","","","","","","","","","","html-keyboard-response","242","2.0.0","1325844","672f61c0e551b93afb8cf779","1","46","null","","","","","","","","","<p style='font-size: 30px;'><strong>Okay</strong></p>","null","neutral_feedback","1","test","19","","","","","","","",""
"","","","","","","","","","","","html-button-response","243","2.0.0","1327321","672f61c0e551b93afb8cf779","1","46","1473","","","","","","","","","<img src= ""rock_img/I_Basalt_16.jpg"" style=""width:8cm; height:7.659999999999999cm;""><p>What type of rock is this?</p>","1","class_response","1","test","20","Basalt","Basalt","16","true","2","2","",""
"","","","","","","","","","","","html-keyboard-response","244","2.0.0","1327825","672f61c0e551b93afb8cf779","1","46","null","","","","","","","","","<p style='font-size: 30px;'><strong>Okay</strong></p>","null","neutral_feedback","1","test","20","","","","","","","",""
"","","","","","","","","","","","html-button-response","245","2.0.0","1332870","672f61c0e551b93afb8cf779","1","46","5041","","","","","","","","","<img src= ""rock_img/I_Pegmatite_09.jpg"" style=""width:8cm; height:4.03cm;""><p>What type of rock is this?</p>","5","class_response","1","test","21","Pegmatite","Pegmatite","09","true","6","6","",""
"","","","","","","","","","","","html-keyboard-response","246","2.0.0","1333374","672f61c0e551b93afb8cf779","1","46","null","","","","","","","","","<p style='font-size: 30px;'><strong>Okay</strong></p>","null","neutral_feedback","1","test","21","","","","","","","",""
"","","","","","","","","","","","html-button-response","247","2.0.0","1338157","672f61c0e551b93afb8cf779","1","46","4780","","","","","","","","","<img src= ""rock_img/I_Andesite_03.jpg"" style=""width:8cm; height:5.73cm;""><p>What type of rock is this?</p>","0","class_response","1","test","22","Andesite","Andesite","03","true","1","1","",""
"","","","","","","","","","","","html-keyboard-response","248","2.0.0","1338661","672f61c0e551b93afb8cf779","1","46","null","","","","","","","","","<p style='font-size: 30px;'><strong>Okay</strong></p>","null","neutral_feedback","1","test","22","","","","","","","",""
"","","","","","","","","","","","html-button-response","249","2.0.0","1340265","672f61c0e551b93afb8cf779","1","46","1600","","","","","","","","","<img src= ""rock_img/I_Obsidian_12.jpg"" style=""width:8cm; height:6.53cm;""><p>What type of rock is this?</p>","4","class_response","1","test","23","Obsidian","Obsidian","12","true","5","5","",""
"","","","","","","","","","","","html-keyboard-response","250","2.0.0","1340768","672f61c0e551b93afb8cf779","1","46","null","","","","","","","","","<p style='font-size: 30px;'><strong>Okay</strong></p>","null","neutral_feedback","1","test","23","","","","","","","",""
"","","","","","","","","","","","html-button-response","251","2.0.0","1343670","672f61c0e551b93afb8cf779","1","46","2898","","","","","","","","","<img src= ""rock_img/I_Diorite_10.jpg"" style=""width:8cm; height:5.949999999999999cm;""><p>What type of rock is this?</p>","2","class_response","1","test","24","Diorite","Diorite","10","true","3","3","",""
"","","","","","","","","","","","html-keyboard-response","252","2.0.0","1344173","672f61c0e551b93afb8cf779","1","46","null","","","","","","","","","<p style='font-size: 30px;'><strong>Okay</strong></p>","null","neutral_feedback","1","test","24","","","","","","","",""
"","","","","","","","","","","","html-button-response","253","2.0.0","1345331","672f61c0e551b93afb8cf779","1","46","1155","","","","","","","","","<img src= ""rock_img/I_Obsidian_11.jpg"" style=""width:8cm; height:6.05cm;""><p>What type of rock is this?</p>","4","class_response","1","test","25","Obsidian","Obsidian","11","true","5","5","",""
"","","","","","","","","","","","html-keyboard-response","254","2.0.0","1345835","672f61c0e551b93afb8cf779","1","46","null","","","","","","","","","<p style='font-size: 30px;'><strong>Okay</strong></p>","null","neutral_feedback","1","test","25","","","","","","","",""
"","","","","","","","","","","","html-button-response","255","2.0.0","1347118","672f61c0e551b93afb8cf779","1","46","1280","","","","","","","","","<img src= ""rock_img/I_Peridotite_14.jpg"" style=""width:8cm; height:5.3cm;""><p>What type of rock is this?</p>","1","class_response","1","test","26","Basalt","Peridotite","14","false","2","7","",""
"","","","","","","","","","","","html-keyboard-response","256","2.0.0","1347622","672f61c0e551b93afb8cf779","1","46","null","","","","","","","","","<p style='font-size: 30px;'><strong>Okay</strong></p>","null","neutral_feedback","1","test","26","","","","","","","",""
"","","","","","","","","","","","html-button-response","257","2.0.0","1349510","672f61c0e551b93afb8cf779","1","46","1885","","","","","","","","","<img src= ""rock_img/I_Peridotite_02.jpg"" style=""width:8cm; height:5.859999999999999cm;""><p>What type of rock is this?</p>","6","class_response","1","test","27","Peridotite","Peridotite","02","true","7","7","",""
"","","","","","","","","","","","html-keyboard-response","258","2.0.0","1350013","672f61c0e551b93afb8cf779","1","46","null","","","","","","","","","<p style='font-size: 30px;'><strong>Okay</strong></p>","null","neutral_feedback","1","test","27","","","","","","","",""
"","","","","","","","","","","","html-button-response","259","2.0.0","1352402","672f61c0e551b93afb8cf779","1","46","2387","","","","","","","","","<img src= ""rock_img/I_Obsidian_05.jpg"" style=""width:8cm; height:6.33cm;""><p>What type of rock is this?</p>","4","class_response","1","test","28","Obsidian","Obsidian","05","true","5","5","",""
"","","","","","","","","","","","html-keyboard-response","260","2.0.0","1352906","672f61c0e551b93afb8cf779","1","46","null","","","","","","","","","<p style='font-size: 30px;'><strong>Okay</strong></p>","null","neutral_feedback","1","test","28","","","","","","","",""
"","","","","","","","","","","","html-button-response","261","2.0.0","1356016","672f61c0e551b93afb8cf779","1","46","3106","","","","","","","","","<img src= ""rock_img/I_Andesite_05.jpg"" style=""width:8cm; height:4.12cm;""><p>What type of rock is this?</p>","3","class_response","1","test","29","Gabbro","Andesite","05","false","4","1","",""
"","","","","","","","","","","","html-keyboard-response","262","2.0.0","1356519","672f61c0e551b93afb8cf779","1","46","null","","","","","","","","","<p style='font-size: 30px;'><strong>Okay</strong></p>","null","neutral_feedback","1","test","29","","","","","","","",""
"","","","","","","","","","","","html-button-response","263","2.0.0","1357794","672f61c0e551b93afb8cf779","1","46","1271","","","","","","","","","<img src= ""rock_img/I_Diorite_12.jpg"" style=""width:8cm; height:4.88cm;""><p>What type of rock is this?</p>","2","class_response","1","test","30","Diorite","Diorite","12","true","3","3","",""
"","","","","","","","","","","","html-keyboard-response","264","2.0.0","1358298","672f61c0e551b93afb8cf779","1","46","null","","","","","","","","","<p style='font-size: 30px;'><strong>Okay</strong></p>","null","neutral_feedback","1","test","30","","","","","","","",""
"","","","","","","","","","","","html-button-response","265","2.0.0","1361326","672f61c0e551b93afb8cf779","1","46","3025","","","","","","","","","<img src= ""rock_img/I_Diorite_08.jpg"" style=""width:8cm; height:6.37cm;""><p>What type of rock is this?</p>","6","class_response","1","test","31","Peridotite","Diorite","08","false","7","3","",""
"","","","","","","","","","","","html-keyboard-response","266","2.0.0","1361830","672f61c0e551b93afb8cf779","1","46","null","","","","","","","","","<p style='font-size: 30px;'><strong>Okay</strong></p>","null","neutral_feedback","1","test","31","","","","","","","",""
"","","","","","","","","","","","html-button-response","267","2.0.0","1363290","672f61c0e551b93afb8cf779","1","46","1456","","","","","","","","","<img src= ""rock_img/I_Peridotite_05.jpg"" style=""width:8cm; height:7.1499999999999995cm;""><p>What type of rock is this?</p>","1","class_response","1","test","32","Basalt","Peridotite","05","false","2","7","",""
"","","","","","","","","","","","html-keyboard-response","268","2.0.0","1363794","672f61c0e551b93afb8cf779","1","46","null","","","","","","","","","<p style='font-size: 30px;'><strong>Okay</strong></p>","null","neutral_feedback","1","test","32","","","","","","","",""
"","","","","","","","","","","","html-button-response","269","2.0.0","1366515","672f61c0e551b93afb8cf779","1","46","2717","","","","","","","","","<img src= ""rock_img/I_Pegmatite_11.jpg"" style=""width:8cm; height:8.14cm;""><p>What type of rock is this?</p>","7","class_response","1","test","33","Pumice","Pegmatite","11","false","8","6","",""
"","","","","","","","","","","","html-keyboard-response","270","2.0.0","1367018","672f61c0e551b93afb8cf779","1","46","null","","","","","","","","","<p style='font-size: 30px;'><strong>Okay</strong></p>","null","neutral_feedback","1","test","33","","","","","","","",""
"","","","","","","","","","","","html-button-response","271","2.0.0","1368971","672f61c0e551b93afb8cf779","1","46","1949","","","","","","","","","<img src= ""rock_img/I_Basalt_01.jpg"" style=""width:8cm; height:7.880000000000001cm;""><p>What type of rock is this?</p>","1","class_response","1","test","34","Basalt","Basalt","01","true","2","2","",""
"","","","","","","","","","","","html-keyboard-response","272","2.0.0","1369475","672f61c0e551b93afb8cf779","1","46","null","","","","","","","","","<p style='font-size: 30px;'><strong>Okay</strong></p>","null","neutral_feedback","1","test","34","","","","","","","",""
"","","","","","","","","","","","html-button-response","273","2.0.0","1373238","672f61c0e551b93afb8cf779","1","46","3759","","","","","","","","","<img src= ""rock_img/I_Peridotite_12.jpg"" style=""width:8cm; height:4.54cm;""><p>What type of rock is this?</p>","6","class_response","1","test","35","Peridotite","Peridotite","12","true","7","7","",""
"","","","","","","","","","","","html-keyboard-response","274","2.0.0","1373741","672f61c0e551b93afb8cf779","1","46","null","","","","","","","","","<p style='font-size: 30px;'><strong>Okay</strong></p>","null","neutral_feedback","1","test","35","","","","","","","",""
"","","","","","","","","","","","html-button-response","275","2.0.0","1375554","672f61c0e551b93afb8cf779","1","46","1809","","","","","","","","","<img src= ""rock_img/I_Andesite_14.jpg"" style=""width:8cm; height:5.449999999999999cm;""><p>What type of rock is this?</p>","7","class_response","1","test","36","Pumice","Andesite","14","false","8","1","",""
"","","","","","","","","","","","html-keyboard-response","276","2.0.0","1376058","672f61c0e551b93afb8cf779","1","46","null","","","","","","","","","<p style='font-size: 30px;'><strong>Okay</strong></p>","null","neutral_feedback","1","test","36","","","","","","","",""
"","","","","","","","","","","","html-button-response","277","2.0.0","1377373","672f61c0e551b93afb8cf779","1","46","1313","","","","","","","","","<img src= ""rock_img/I_Basalt_12.jpg"" style=""width:8cm; height:6.010000000000001cm;""><p>What type of rock is this?</p>","7","class_response","1","test","37","Pumice","Basalt","12","false","8","2","",""
"","","","","","","","","","","","html-keyboard-response","278","2.0.0","1377877","672f61c0e551b93afb8cf779","1","46","null","","","","","","","","","<p style='font-size: 30px;'><strong>Okay</strong></p>","null","neutral_feedback","1","test","37","","","","","","","",""
"","","","","","","","","","","","html-button-response","279","2.0.0","1380239","672f61c0e551b93afb8cf779","1","46","2358","","","","","","","","","<img src= ""rock_img/I_Peridotite_16.jpg"" style=""width:8cm; height:6.989999999999999cm;""><p>What type of rock is this?</p>","0","class_response","1","test","38","Andesite","Peridotite","16","false","1","7","",""
"","","","","","","","","","","","html-keyboard-response","280","2.0.0","1380741","672f61c0e551b93afb8cf779","1","46","null","","","","","","","","","<p style='font-size: 30px;'><strong>Okay</strong></p>","null","neutral_feedback","1","test","38","","","","","","","",""
"","","","","","","","","","","","html-button-response","281","2.0.0","1382730","672f61c0e551b93afb8cf779","1","46","1984","","","","","","","","","<img src= ""rock_img/I_Pegmatite_15.jpg"" style=""width:8cm; height:6cm;""><p>What type of rock is this?</p>","6","class_response","1","test","39","Peridotite","Pegmatite","15","false","7","6","",""
"","","","","","","","","","","","html-keyboard-response","282","2.0.0","1383234","672f61c0e551b93afb8cf779","1","46","null","","","","","","","","","<p style='font-size: 30px;'><strong>Okay</strong></p>","null","neutral_feedback","1","test","39","","","","","","","",""
"","","","","","","","","","","","html-button-response","283","2.0.0","1386126","672f61c0e551b93afb8cf779","1","46","2889","","","","","","","","","<img src= ""rock_img/I_Basalt_04.jpg"" style=""width:8cm; height:7.53cm;""><p>What type of rock is this?</p>","1","class_response","1","test","40","Basalt","Basalt","04","true","2","2","",""
"","","","","","","","","","","","html-keyboard-response","284","2.0.0","1386629","672f61c0e551b93afb8cf779","1","46","null","","","","","","","","","<p style='font-size: 30px;'><strong>Okay</strong></p>","null","neutral_feedback","1","test","40","","","","","","","",""
"","","","","","","","","","","","html-button-response","285","2.0.0","1389302","672f61c0e551b93afb8cf779","1","46","2670","","","","","","","","","<img src= ""rock_img/I_Pegmatite_05.jpg"" style=""width:8cm; height:7.300000000000001cm;""><p>What type of rock is this?</p>","6","class_response","1","test","41","Peridotite","Pegmatite","05","false","7","6","",""
"","","","","","","","","","","","html-keyboard-response","286","2.0.0","1389806","672f61c0e551b93afb8cf779","1","46","null","","","","","","","","","<p style='font-size: 30px;'><strong>Okay</strong></p>","null","neutral_feedback","1","test","41","","","","","","","",""
"","","","","","","","","","","","html-button-response","287","2.0.0","1391205","672f61c0e551b93afb8cf779","1","46","1396","","","","","","","","","<img src= ""rock_img/I_Obsidian_06.jpg"" style=""width:8cm; height:6.8cm;""><p>What type of rock is this?</p>","4","class_response","1","test","42","Obsidian","Obsidian","06","true","5","5","",""
"","","","","","","","","","","","html-keyboard-response","288","2.0.0","1391709","672f61c0e551b93afb8cf779","1","46","null","","","","","","","","","<p style='font-size: 30px;'><strong>Okay</strong></p>","null","neutral_feedback","1","test","42","","","","","","","",""
"","","","","","","","","","","","html-button-response","289","2.0.0","1393218","672f61c0e551b93afb8cf779","1","46","1505","","","","","","","","","<img src= ""rock_img/I_Basalt_06.jpg"" style=""width:8cm; height:7.06cm;""><p>What type of rock is this?</p>","1","class_response","1","test","43","Basalt","Basalt","06","true","2","2","",""
"","","","","","","","","","","","html-keyboard-response","290","2.0.0","1393722","672f61c0e551b93afb8cf779","1","46","null","","","","","","","","","<p style='font-size: 30px;'><strong>Okay</strong></p>","null","neutral_feedback","1","test","43","","","","","","","",""
"","","","","","","","","","","","html-button-response","291","2.0.0","1394697","672f61c0e551b93afb8cf779","1","46","972","","","","","","","","","<img src= ""rock_img/I_Obsidian_09.jpg"" style=""width:8cm; height:5cm;""><p>What type of rock is this?</p>","1","class_response","1","test","44","Basalt","Obsidian","09","false","2","5","",""
"","","","","","","","","","","","html-keyboard-response","292","2.0.0","1395201","672f61c0e551b93afb8cf779","1","46","null","","","","","","","","","<p style='font-size: 30px;'><strong>Okay</strong></p>","null","neutral_feedback","1","test","44","","","","","","","",""
"","","","","","","","","","","","html-button-response","293","2.0.0","1397655","672f61c0e551b93afb8cf779","1","46","2452","","","","","","","","","<img src= ""rock_img/I_Gabbro_13.jpg"" style=""width:8cm; height:5.08cm;""><p>What type of rock is this?</p>","3","class_response","1","test","45","Gabbro","Gabbro","13","true","4","4","",""
"","","","","","","","","","","","html-keyboard-response","294","2.0.0","1398159","672f61c0e551b93afb8cf779","1","46","null","","","","","","","","","<p style='font-size: 30px;'><strong>Okay</strong></p>","null","neutral_feedback","1","test","45","","","","","","","",""
"","","","","","","","","","","","html-button-response","295","2.0.0","1400156","672f61c0e551b93afb8cf779","1","46","1992","","","","","","","","","<img src= ""rock_img/I_Pegmatite_06.jpg"" style=""width:8cm; height:5.17cm;""><p>What type of rock is this?</p>","2","class_response","1","test","46","Diorite","Pegmatite","06","false","3","6","",""
"","","","","","","","","","","","html-keyboard-response","296","2.0.0","1400660","672f61c0e551b93afb8cf779","1","46","null","","","","","","","","","<p style='font-size: 30px;'><strong>Okay</strong></p>","null","neutral_feedback","1","test","46","","","","","","","",""
"","","","","","","","","","","","html-button-response","297","2.0.0","1401962","672f61c0e551b93afb8cf779","1","46","1299","","","","","","","","","<img src= ""rock_img/I_Pumice_04.jpg"" style=""width:8cm; height:6.819999999999999cm;""><p>What type of rock is this?</p>","7","class_response","1","test","47","Pumice","Pumice","04","true","8","8","",""
"","","","","","","","","","","","html-keyboard-response","298","2.0.0","1402467","672f61c0e551b93afb8cf779","1","46","null","","","","","","","","","<p style='font-size: 30px;'><strong>Okay</strong></p>","null","neutral_feedback","1","test","47","","","","","","","",""
"","","","","","","","","","","","html-button-response","299","2.0.0","1403467","672f61c0e551b93afb8cf779","1","46","996","","","","","","","","","<img src= ""rock_img/I_Pumice_09.jpg"" style=""width:8cm; height:6.44cm;""><p>What type of rock is this?</p>","7","class_response","1","test","48","Pumice","Pumice","09","true","8","8","",""
"","","","","","","","","","","","html-keyboard-response","300","2.0.0","1403971","672f61c0e551b93afb8cf779","1","46","null","","","","","","","","","<p style='font-size: 30px;'><strong>Okay</strong></p>","null","neutral_feedback","1","test","48","","","","","","","",""
"","","","","","","","","","","","html-button-response","301","2.0.0","1456252","672f61c0e551b93afb8cf779","1","46","","","","","","","","","","","","cycle_feedback","","","","","","","","","","31579.30000000447","20686.19999999553"
"","","","","","","","","","","","html-button-response","303","2.0.0","1459072","672f61c0e551b93afb8cf779","1","46","2816","","","","","","","","","","0","start_train","","","","","","","","","","",""
"","","","","","","","","","","","html-button-response","304","2.0.0","1463516","672f61c0e551b93afb8cf779","1","46","4440","","","","","","","","","<img src= ""rock_img/I_Andesite_01.jpg"" style=""width:8cm; height:5.87cm;""><p>What type of rock is this?</p>","0","class_response","2","train","1","Andesite","Andesite","01","true","1","1","",""
