"width","height","webaudio","browser","browser_version","mobile","os","fullscreen","vsync_rate","webcam","microphone","trial_type","trial_index","plugin_version","time_elapsed","subjID","condition","stimID","rt","url","success","value","timeout","failed_images","failed_audio","failed_video","view_history","stimulus","response","trialType","cycle","phase","trial","resp","cat","token","corr","resp_num","cat_num","rt_ref","rt_paired","ref_cat_num","paired_cat_num","ref_cat","paired_cat"
"1049","632","true","chrome","129.0.0","false","Windows 10","true","56.06","true","true","browser-check","0","2.0.0","1472","6732593eff011c52764cee0f","4","12","","","","","","","","","","","","","","","","","","","","","","","","","","",""
"","","","","","","","","","","","external-html","1","2.0.0","27277","6732593eff011c52764cee0f","4","12","24214","consent_form.html","","","","","","","","","","","","","","","","","","","","","","","","",""
"","","","","","","","","","","","fullscreen","2","2.0.0","30957","6732593eff011c52764cee0f","4","12","2649","","true","","","","","","","","","","","","","","","","","","","","","","","",""
"","","","","","","","","","","","call-function","3","2.0.0","30974","6732593eff011c52764cee0f","4","12","","","","{}","","","","","","","","","","","","","","","","","","","","","","",""
"","","","","","","","","","","","preload","4","2.0.0","40440","6732593eff011c52764cee0f","4","12","","","true","","false","[]","[]","[]","","","","","","","","","","","","","","","","","","",""
"","","","","","","","","","","","instructions","5","2.0.0","172995","6732593eff011c52764cee0f","4","12","132545","","","","","","","","[{""page_index"":0,""viewing_time"":8400},{""page_index"":1,""viewing_time"":67730},{""page_index"":2,""viewing_time"":56413}]","","","","","","","","","","","","","","","","","",""
"","","","","","","","","","","","html-button-response","6","2.0.0","177765","6732593eff011c52764cee0f","4","12","4760","","","","","","","","","","0","start_test","","","","","","","","","","","","","","",""
"","","","","","","","","","","","html-button-response","7","2.0.0","307571","6732593eff011c52764cee0f","4","12","129797","","","","","","","","","<img src= ""rock_img/I_Basalt_14.jpg"" style=""width:8cm; height:5.82cm;""><p>What type of rock is this?</p>","6","class_response","0","test","1","Peridotite","Basalt","14","false","7","2","","","","","",""
"","","","","","","","","","","","html-keyboard-response","8","2.0.0","308121","6732593eff011c52764cee0f","4","12","null","","","","","","","","","<p style='font-size: 30px;'><strong>Okay</strong></p>","null","neutral_feedback","0","test","1","","","","","","","","","","","",""
"","","","","","","","","","","","html-button-response","9","2.0.0","338769","6732593eff011c52764cee0f","4","12","30630","","","","","","","","","<img src= ""rock_img/I_Andesite_16.jpg"" style=""width:8cm; height:6.010000000000001cm;""><p>What type of rock is this?</p>","3","class_response","0","test","2","Gabbro","Andesite","16","false","4","1","","","","","",""
"","","","","","","","","","","","html-keyboard-response","10","2.0.0","339290","6732593eff011c52764cee0f","4","12","null","","","","","","","","","<p style='font-size: 30px;'><strong>Okay</strong></p>","null","neutral_feedback","0","test","2","","","","","","","","","","","",""
"","","","","","","","","","","","html-button-response","11","2.0.0","347747","6732593eff011c52764cee0f","4","12","8439","","","","","","","","","<img src= ""rock_img/I_Diorite_11.jpg"" style=""width:8cm; height:7.11cm;""><p>What type of rock is this?</p>","5","class_response","0","test","3","Pegmatite","Diorite","11","false","6","3","","","","","",""
"","","","","","","","","","","","html-keyboard-response","12","2.0.0","348257","6732593eff011c52764cee0f","4","12","null","","","","","","","","","<p style='font-size: 30px;'><strong>Okay</strong></p>","null","neutral_feedback","0","test","3","","","","","","","","","","","",""
"","","","","","","","","","","","html-button-response","13","2.0.0","411785","6732593eff011c52764cee0f","4","12","63516","","","","","","","","","<img src= ""rock_img/I_Gabbro_15.jpg"" style=""width:8cm; height:6.29cm;""><p>What type of rock is this?</p>","2","class_response","0","test","4","Diorite","Gabbro","15","false","3","4","","","","","",""
"","","","","","","","","","","","html-keyboard-response","14","2.0.0","412306","6732593eff011c52764cee0f","4","12","null","","","","","","","","","<p style='font-size: 30px;'><strong>Okay</strong></p>","null","neutral_feedback","0","test","4","","","","","","","","","","","",""
"","","","","","","","","","","","html-button-response","15","2.0.0","418170","6732593eff011c52764cee0f","4","12","5849","","","","","","","","","<img src= ""rock_img/I_Pumice_04.jpg"" style=""width:8cm; height:6.819999999999999cm;""><p>What type of rock is this?</p>","7","class_response","0","test","5","Pumice","Pumice","04","true","8","8","","","","","",""
"","","","","","","","","","","","html-keyboard-response","16","2.0.0","418683","6732593eff011c52764cee0f","4","12","null","","","","","","","","","<p style='font-size: 30px;'><strong>Okay</strong></p>","null","neutral_feedback","0","test","5","","","","","","","","","","","",""
"","","","","","","","","","","","html-button-response","17","2.0.0","422910","6732593eff011c52764cee0f","4","12","4215","","","","","","","","","<img src= ""rock_img/I_Gabbro_10.jpg"" style=""width:8cm; height:5.680000000000001cm;""><p>What type of rock is this?</p>","3","class_response","0","test","6","Gabbro","Gabbro","10","true","4","4","","","","","",""
"","","","","","","","","","","","html-keyboard-response","18","2.0.0","423427","6732593eff011c52764cee0f","4","12","null","","","","","","","","","<p style='font-size: 30px;'><strong>Okay</strong></p>","null","neutral_feedback","0","test","6","","","","","","","","","","","",""
"","","","","","","","","","","","html-button-response","19","2.0.0","429416","6732593eff011c52764cee0f","4","12","5977","","","","","","","","","<img src= ""rock_img/I_Diorite_10.jpg"" style=""width:8cm; height:5.949999999999999cm;""><p>What type of rock is this?</p>","2","class_response","0","test","7","Diorite","Diorite","10","true","3","3","","","","","",""
"","","","","","","","","","","","html-keyboard-response","20","2.0.0","429938","6732593eff011c52764cee0f","4","12","null","","","","","","","","","<p style='font-size: 30px;'><strong>Okay</strong></p>","null","neutral_feedback","0","test","7","","","","","","","","","","","",""
"","","","","","","","","","","","html-button-response","21","2.0.0","437969","6732593eff011c52764cee0f","4","12","8019","","","","","","","","","<img src= ""rock_img/I_Obsidian_16.jpg"" style=""width:8cm; height:9.3cm;""><p>What type of rock is this?</p>","4","class_response","0","test","8","Obsidian","Obsidian","16","true","5","5","","","","","",""
"","","","","","","","","","","","html-keyboard-response","22","2.0.0","438484","6732593eff011c52764cee0f","4","12","null","","","","","","","","","<p style='font-size: 30px;'><strong>Okay</strong></p>","null","neutral_feedback","0","test","8","","","","","","","","","","","",""
"","","","","","","","","","","","html-button-response","23","2.0.0","440660","6732593eff011c52764cee0f","4","12","2163","","","","","","","","","<img src= ""rock_img/I_Obsidian_04.jpg"" style=""width:8cm; height:6.930000000000001cm;""><p>What type of rock is this?</p>","4","class_response","0","test","9","Obsidian","Obsidian","04","true","5","5","","","","","",""
"","","","","","","","","","","","html-keyboard-response","24","2.0.0","441176","6732593eff011c52764cee0f","4","12","null","","","","","","","","","<p style='font-size: 30px;'><strong>Okay</strong></p>","null","neutral_feedback","0","test","9","","","","","","","","","","","",""
"","","","","","","","","","","","html-button-response","25","2.0.0","447468","6732593eff011c52764cee0f","4","12","6279","","","","","","","","","<img src= ""rock_img/I_Basalt_08.jpg"" style=""width:8cm; height:10.44cm;""><p>What type of rock is this?</p>","1","class_response","0","test","10","Basalt","Basalt","08","true","2","2","","","","","",""
"","","","","","","","","","","","html-keyboard-response","26","2.0.0","447988","6732593eff011c52764cee0f","4","12","null","","","","","","","","","<p style='font-size: 30px;'><strong>Okay</strong></p>","null","neutral_feedback","0","test","10","","","","","","","","","","","",""
"","","","","","","","","","","","html-button-response","27","2.0.0","516192","6732593eff011c52764cee0f","4","12","68190","","","","","","","","","<img src= ""rock_img/I_Obsidian_07.jpg"" style=""width:8cm; height:4.76cm;""><p>What type of rock is this?</p>","1","class_response","0","test","11","Basalt","Obsidian","07","false","2","5","","","","","",""
"","","","","","","","","","","","html-keyboard-response","28","2.0.0","516705","6732593eff011c52764cee0f","4","12","null","","","","","","","","","<p style='font-size: 30px;'><strong>Okay</strong></p>","null","neutral_feedback","0","test","11","","","","","","","","","","","",""
"","","","","","","","","","","","html-button-response","29","2.0.0","555495","6732593eff011c52764cee0f","4","12","38782","","","","","","","","","<img src= ""rock_img/I_Peridotite_16.jpg"" style=""width:8cm; height:6.989999999999999cm;""><p>What type of rock is this?</p>","3","class_response","0","test","12","Gabbro","Peridotite","16","false","4","7","","","","","",""
"","","","","","","","","","","","html-keyboard-response","30","2.0.0","556003","6732593eff011c52764cee0f","4","12","null","","","","","","","","","<p style='font-size: 30px;'><strong>Okay</strong></p>","null","neutral_feedback","0","test","12","","","","","","","","","","","",""
"","","","","","","","","","","","html-button-response","31","2.0.0","587365","6732593eff011c52764cee0f","4","12","31347","","","","","","","","","<img src= ""rock_img/I_Peridotite_06.jpg"" style=""width:8cm; height:7.53cm;""><p>What type of rock is this?</p>","5","class_response","0","test","13","Pegmatite","Peridotite","06","false","6","7","","","","","",""
"","","","","","","","","","","","html-keyboard-response","32","2.0.0","587871","6732593eff011c52764cee0f","4","12","null","","","","","","","","","<p style='font-size: 30px;'><strong>Okay</strong></p>","null","neutral_feedback","0","test","13","","","","","","","","","","","",""
"","","","","","","","","","","","html-button-response","33","2.0.0","593598","6732593eff011c52764cee0f","4","12","5714","","","","","","","","","<img src= ""rock_img/I_Pumice_14.jpg"" style=""width:8cm; height:6.39cm;""><p>What type of rock is this?</p>","7","class_response","0","test","14","Pumice","Pumice","14","true","8","8","","","","","",""
"","","","","","","","","","","","html-keyboard-response","34","2.0.0","594112","6732593eff011c52764cee0f","4","12","null","","","","","","","","","<p style='font-size: 30px;'><strong>Okay</strong></p>","null","neutral_feedback","0","test","14","","","","","","","","","","","",""
"","","","","","","","","","","","html-button-response","35","2.0.0","649231","6732593eff011c52764cee0f","4","12","55118","","","","","","","","","<img src= ""rock_img/I_Andesite_05.jpg"" style=""width:8cm; height:4.12cm;""><p>What type of rock is this?</p>","2","class_response","0","test","15","Diorite","Andesite","05","false","3","1","","","","","",""
"","","","","","","","","","","","html-keyboard-response","36","2.0.0","649748","6732593eff011c52764cee0f","4","12","null","","","","","","","","","<p style='font-size: 30px;'><strong>Okay</strong></p>","null","neutral_feedback","0","test","15","","","","","","","","","","","",""
"","","","","","","","","","","","html-button-response","37","2.0.0","652530","6732593eff011c52764cee0f","4","12","2770","","","","","","","","","<img src= ""rock_img/I_Andesite_07.jpg"" style=""width:8cm; height:5.93cm;""><p>What type of rock is this?</p>","2","class_response","0","test","16","Diorite","Andesite","07","false","3","1","","","","","",""
"","","","","","","","","","","","html-keyboard-response","38","2.0.0","653046","6732593eff011c52764cee0f","4","12","null","","","","","","","","","<p style='font-size: 30px;'><strong>Okay</strong></p>","null","neutral_feedback","0","test","16","","","","","","","","","","","",""
"","","","","","","","","","","","html-button-response","39","2.0.0","702427","6732593eff011c52764cee0f","4","12","49374","","","","","","","","","<img src= ""rock_img/I_Gabbro_01.jpg"" style=""width:8cm; height:5.21cm;""><p>What type of rock is this?</p>","2","class_response","0","test","17","Diorite","Gabbro","01","false","3","4","","","","","",""
"","","","","","","","","","","","html-keyboard-response","40","2.0.0","702931","6732593eff011c52764cee0f","4","12","null","","","","","","","","","<p style='font-size: 30px;'><strong>Okay</strong></p>","null","neutral_feedback","0","test","17","","","","","","","","","","","",""
"","","","","","","","","","","","html-button-response","41","2.0.0","709691","6732593eff011c52764cee0f","4","12","6741","","","","","","","","","<img src= ""rock_img/I_Pegmatite_10.jpg"" style=""width:8cm; height:4.16cm;""><p>What type of rock is this?</p>","0","class_response","0","test","18","Andesite","Pegmatite","10","false","1","6","","","","","",""
"","","","","","","","","","","","html-keyboard-response","42","2.0.0","710204","6732593eff011c52764cee0f","4","12","null","","","","","","","","","<p style='font-size: 30px;'><strong>Okay</strong></p>","null","neutral_feedback","0","test","18","","","","","","","","","","","",""
"","","","","","","","","","","","html-button-response","43","2.0.0","716206","6732593eff011c52764cee0f","4","12","5988","","","","","","","","","<img src= ""rock_img/I_Peridotite_12.jpg"" style=""width:8cm; height:4.54cm;""><p>What type of rock is this?</p>","2","class_response","0","test","19","Diorite","Peridotite","12","false","3","7","","","","","",""
"","","","","","","","","","","","html-keyboard-response","44","2.0.0","716714","6732593eff011c52764cee0f","4","12","null","","","","","","","","","<p style='font-size: 30px;'><strong>Okay</strong></p>","null","neutral_feedback","0","test","19","","","","","","","","","","","",""
"","","","","","","","","","","","html-button-response","45","2.0.0","740271","6732593eff011c52764cee0f","4","12","23547","","","","","","","","","<img src= ""rock_img/I_Diorite_08.jpg"" style=""width:8cm; height:6.37cm;""><p>What type of rock is this?</p>","5","class_response","0","test","20","Pegmatite","Diorite","08","false","6","3","","","","","",""
"","","","","","","","","","","","html-keyboard-response","46","2.0.0","740792","6732593eff011c52764cee0f","4","12","null","","","","","","","","","<p style='font-size: 30px;'><strong>Okay</strong></p>","null","neutral_feedback","0","test","20","","","","","","","","","","","",""
"","","","","","","","","","","","html-button-response","47","2.0.0","748908","6732593eff011c52764cee0f","4","12","8104","","","","","","","","","<img src= ""rock_img/I_Peridotite_14.jpg"" style=""width:8cm; height:5.3cm;""><p>What type of rock is this?</p>","7","class_response","0","test","21","Pumice","Peridotite","14","false","8","7","","","","","",""
"","","","","","","","","","","","html-keyboard-response","48","2.0.0","749418","6732593eff011c52764cee0f","4","12","null","","","","","","","","","<p style='font-size: 30px;'><strong>Okay</strong></p>","null","neutral_feedback","0","test","21","","","","","","","","","","","",""
"","","","","","","","","","","","html-button-response","49","2.0.0","769760","6732593eff011c52764cee0f","4","12","20336","","","","","","","","","<img src= ""rock_img/I_Pumice_08.jpg"" style=""width:8cm; height:6.67cm;""><p>What type of rock is this?</p>","0","class_response","0","test","22","Andesite","Pumice","08","false","1","8","","","","","",""
"","","","","","","","","","","","html-keyboard-response","50","2.0.0","770278","6732593eff011c52764cee0f","4","12","null","","","","","","","","","<p style='font-size: 30px;'><strong>Okay</strong></p>","null","neutral_feedback","0","test","22","","","","","","","","","","","",""
"","","","","","","","","","","","html-button-response","51","2.0.0","773964","6732593eff011c52764cee0f","4","12","3675","","","","","","","","","<img src= ""rock_img/I_Pegmatite_08.jpg"" style=""width:8cm; height:7.68cm;""><p>What type of rock is this?</p>","1","class_response","0","test","23","Basalt","Pegmatite","08","false","2","6","","","","","",""
"","","","","","","","","","","","html-keyboard-response","52","2.0.0","774479","6732593eff011c52764cee0f","4","12","null","","","","","","","","","<p style='font-size: 30px;'><strong>Okay</strong></p>","null","neutral_feedback","0","test","23","","","","","","","","","","","",""
"","","","","","","","","","","","html-button-response","53","2.0.0","782859","6732593eff011c52764cee0f","4","12","8368","","","","","","","","","<img src= ""rock_img/I_Diorite_15.jpg"" style=""width:8cm; height:5.54cm;""><p>What type of rock is this?</p>","7","class_response","0","test","24","Pumice","Diorite","15","false","8","3","","","","","",""
"","","","","","","","","","","","html-keyboard-response","54","2.0.0","783370","6732593eff011c52764cee0f","4","12","null","","","","","","","","","<p style='font-size: 30px;'><strong>Okay</strong></p>","null","neutral_feedback","0","test","24","","","","","","","","","","","",""
"","","","","","","","","","","","html-button-response","55","2.0.0","788194","6732593eff011c52764cee0f","4","12","4812","","","","","","","","","<img src= ""rock_img/I_Pumice_05.jpg"" style=""width:8cm; height:7.25cm;""><p>What type of rock is this?</p>","2","class_response","0","test","25","Diorite","Pumice","05","false","3","8","","","","","",""
"","","","","","","","","","","","html-keyboard-response","56","2.0.0","788711","6732593eff011c52764cee0f","4","12","null","","","","","","","","","<p style='font-size: 30px;'><strong>Okay</strong></p>","null","neutral_feedback","0","test","25","","","","","","","","","","","",""
"","","","","","","","","","","","html-button-response","57","2.0.0","796021","6732593eff011c52764cee0f","4","12","7299","","","","","","","","","<img src= ""rock_img/I_Obsidian_06.jpg"" style=""width:8cm; height:6.8cm;""><p>What type of rock is this?</p>","4","class_response","0","test","26","Obsidian","Obsidian","06","true","5","5","","","","","",""
"","","","","","","","","","","","html-keyboard-response","58","2.0.0","796540","6732593eff011c52764cee0f","4","12","null","","","","","","","","","<p style='font-size: 30px;'><strong>Okay</strong></p>","null","neutral_feedback","0","test","26","","","","","","","","","","","",""
"","","","","","","","","","","","html-button-response","59","2.0.0","800588","6732593eff011c52764cee0f","4","12","4042","","","","","","","","","<img src= ""rock_img/I_Obsidian_05.jpg"" style=""width:8cm; height:6.33cm;""><p>What type of rock is this?</p>","4","class_response","0","test","27","Obsidian","Obsidian","05","true","5","5","","","","","",""
"","","","","","","","","","","","html-keyboard-response","60","2.0.0","801102","6732593eff011c52764cee0f","4","12","null","","","","","","","","","<p style='font-size: 30px;'><strong>Okay</strong></p>","null","neutral_feedback","0","test","27","","","","","","","","","","","",""
"","","","","","","","","","","","html-button-response","61","2.0.0","806548","6732593eff011c52764cee0f","4","12","5435","","","","","","","","","<img src= ""rock_img/I_Gabbro_11.jpg"" style=""width:8cm; height:6.2cm;""><p>What type of rock is this?</p>","3","class_response","0","test","28","Gabbro","Gabbro","11","true","4","4","","","","","",""
"","","","","","","","","","","","html-keyboard-response","62","2.0.0","807062","6732593eff011c52764cee0f","4","12","null","","","","","","","","","<p style='font-size: 30px;'><strong>Okay</strong></p>","null","neutral_feedback","0","test","28","","","","","","","","","","","",""
"","","","","","","","","","","","html-button-response","63","2.0.0","817266","6732593eff011c52764cee0f","4","12","10189","","","","","","","","","<img src= ""rock_img/I_Pegmatite_12.jpg"" style=""width:8cm; height:5.7cm;""><p>What type of rock is this?</p>","4","class_response","0","test","29","Obsidian","Pegmatite","12","false","5","6","","","","","",""
"","","","","","","","","","","","html-keyboard-response","64","2.0.0","817783","6732593eff011c52764cee0f","4","12","null","","","","","","","","","<p style='font-size: 30px;'><strong>Okay</strong></p>","null","neutral_feedback","0","test","29","","","","","","","","","","","",""
"","","","","","","","","","","","html-button-response","65","2.0.0","821754","6732593eff011c52764cee0f","4","12","3963","","","","","","","","","<img src= ""rock_img/I_Peridotite_07.jpg"" style=""width:8cm; height:4.83cm;""><p>What type of rock is this?</p>","0","class_response","0","test","30","Andesite","Peridotite","07","false","1","7","","","","","",""
"","","","","","","","","","","","html-keyboard-response","66","2.0.0","822264","6732593eff011c52764cee0f","4","12","null","","","","","","","","","<p style='font-size: 30px;'><strong>Okay</strong></p>","null","neutral_feedback","0","test","30","","","","","","","","","","","",""
"","","","","","","","","","","","html-button-response","67","2.0.0","850357","6732593eff011c52764cee0f","4","12","28083","","","","","","","","","<img src= ""rock_img/I_Andesite_11.jpg"" style=""width:8cm; height:4.92cm;""><p>What type of rock is this?</p>","2","class_response","0","test","31","Diorite","Andesite","11","false","3","1","","","","","",""
"","","","","","","","","","","","html-keyboard-response","68","2.0.0","850868","6732593eff011c52764cee0f","4","12","null","","","","","","","","","<p style='font-size: 30px;'><strong>Okay</strong></p>","null","neutral_feedback","0","test","31","","","","","","","","","","","",""
"","","","","","","","","","","","html-button-response","69","2.0.0","855136","6732593eff011c52764cee0f","4","12","4258","","","","","","","","","<img src= ""rock_img/I_Pumice_03.jpg"" style=""width:8cm; height:6.64cm;""><p>What type of rock is this?</p>","7","class_response","0","test","32","Pumice","Pumice","03","true","8","8","","","","","",""
"","","","","","","","","","","","html-keyboard-response","70","2.0.0","855649","6732593eff011c52764cee0f","4","12","null","","","","","","","","","<p style='font-size: 30px;'><strong>Okay</strong></p>","null","neutral_feedback","0","test","32","","","","","","","","","","","",""
"","","","","","","","","","","","html-button-response","71","2.0.0","860855","6732593eff011c52764cee0f","4","12","5192","","","","","","","","","<img src= ""rock_img/I_Basalt_05.jpg"" style=""width:8cm; height:8.18cm;""><p>What type of rock is this?</p>","4","class_response","0","test","33","Obsidian","Basalt","05","false","5","2","","","","","",""
"","","","","","","","","","","","html-keyboard-response","72","2.0.0","861369","6732593eff011c52764cee0f","4","12","null","","","","","","","","","<p style='font-size: 30px;'><strong>Okay</strong></p>","null","neutral_feedback","0","test","33","","","","","","","","","","","",""
"","","","","","","","","","","","html-button-response","73","2.0.0","868341","6732593eff011c52764cee0f","4","12","6959","","","","","","","","","<img src= ""rock_img/I_Basalt_09.jpg"" style=""width:8cm; height:6.2cm;""><p>What type of rock is this?</p>","3","class_response","0","test","34","Gabbro","Basalt","09","false","4","2","","","","","",""
"","","","","","","","","","","","html-keyboard-response","74","2.0.0","868852","6732593eff011c52764cee0f","4","12","null","","","","","","","","","<p style='font-size: 30px;'><strong>Okay</strong></p>","null","neutral_feedback","0","test","34","","","","","","","","","","","",""
"","","","","","","","","","","","html-button-response","75","2.0.0","873360","6732593eff011c52764cee0f","4","12","4500","","","","","","","","","<img src= ""rock_img/I_Basalt_02.jpg"" style=""width:8cm; height:6.45cm;""><p>What type of rock is this?</p>","1","class_response","0","test","35","Basalt","Basalt","02","true","2","2","","","","","",""
"","","","","","","","","","","","html-keyboard-response","76","2.0.0","873864","6732593eff011c52764cee0f","4","12","null","","","","","","","","","<p style='font-size: 30px;'><strong>Okay</strong></p>","null","neutral_feedback","0","test","35","","","","","","","","","","","",""
"","","","","","","","","","","","html-button-response","77","2.0.0","878431","6732593eff011c52764cee0f","4","12","4556","","","","","","","","","<img src= ""rock_img/I_Pegmatite_03.jpg"" style=""width:8cm; height:5.239999999999999cm;""><p>What type of rock is this?</p>","5","class_response","0","test","36","Pegmatite","Pegmatite","03","true","6","6","","","","","",""
"","","","","","","","","","","","html-keyboard-response","78","2.0.0","878943","6732593eff011c52764cee0f","4","12","null","","","","","","","","","<p style='font-size: 30px;'><strong>Okay</strong></p>","null","neutral_feedback","0","test","36","","","","","","","","","","","",""
"","","","","","","","","","","","html-button-response","79","2.0.0","884424","6732593eff011c52764cee0f","4","12","5467","","","","","","","","","<img src= ""rock_img/I_Gabbro_03.jpg"" style=""width:8cm; height:8.52cm;""><p>What type of rock is this?</p>","2","class_response","0","test","37","Diorite","Gabbro","03","false","3","4","","","","","",""
"","","","","","","","","","","","html-keyboard-response","80","2.0.0","884936","6732593eff011c52764cee0f","4","12","null","","","","","","","","","<p style='font-size: 30px;'><strong>Okay</strong></p>","null","neutral_feedback","0","test","37","","","","","","","","","","","",""
"","","","","","","","","","","","html-button-response","81","2.0.0","888578","6732593eff011c52764cee0f","4","12","3629","","","","","","","","","<img src= ""rock_img/I_Andesite_01.jpg"" style=""width:8cm; height:5.87cm;""><p>What type of rock is this?</p>","6","class_response","0","test","38","Peridotite","Andesite","01","false","7","1","","","","","",""
"","","","","","","","","","","","html-keyboard-response","82","2.0.0","889099","6732593eff011c52764cee0f","4","12","null","","","","","","","","","<p style='font-size: 30px;'><strong>Okay</strong></p>","null","neutral_feedback","0","test","38","","","","","","","","","","","",""
"","","","","","","","","","","","html-button-response","83","2.0.0","893487","6732593eff011c52764cee0f","4","12","4377","","","","","","","","","<img src= ""rock_img/I_Pegmatite_16.jpg"" style=""width:8cm; height:5.8cm;""><p>What type of rock is this?</p>","5","class_response","0","test","39","Pegmatite","Pegmatite","16","true","6","6","","","","","",""
"","","","","","","","","","","","html-keyboard-response","84","2.0.0","893993","6732593eff011c52764cee0f","4","12","null","","","","","","","","","<p style='font-size: 30px;'><strong>Okay</strong></p>","null","neutral_feedback","0","test","39","","","","","","","","","","","",""
"","","","","","","","","","","","html-button-response","85","2.0.0","908708","6732593eff011c52764cee0f","4","12","14706","","","","","","","","","<img src= ""rock_img/I_Pumice_09.jpg"" style=""width:8cm; height:6.44cm;""><p>What type of rock is this?</p>","2","class_response","0","test","40","Diorite","Pumice","09","false","3","8","","","","","",""
"","","","","","","","","","","","html-keyboard-response","86","2.0.0","909228","6732593eff011c52764cee0f","4","12","null","","","","","","","","","<p style='font-size: 30px;'><strong>Okay</strong></p>","null","neutral_feedback","0","test","40","","","","","","","","","","","",""
"","","","","","","","","","","","html-button-response","87","2.0.0","911258","6732593eff011c52764cee0f","4","12","2018","","","","","","","","","<img src= ""rock_img/I_Diorite_16.jpg"" style=""width:8cm; height:6.74cm;""><p>What type of rock is this?</p>","2","class_response","0","test","41","Diorite","Diorite","16","true","3","3","","","","","",""
"","","","","","","","","","","","html-keyboard-response","88","2.0.0","911774","6732593eff011c52764cee0f","4","12","null","","","","","","","","","<p style='font-size: 30px;'><strong>Okay</strong></p>","null","neutral_feedback","0","test","41","","","","","","","","","","","",""
"","","","","","","","","","","","html-button-response","89","2.0.0","919850","6732593eff011c52764cee0f","4","12","8069","","","","","","","","","<img src= ""rock_img/I_Pegmatite_15.jpg"" style=""width:8cm; height:6cm;""><p>What type of rock is this?</p>","5","class_response","0","test","42","Pegmatite","Pegmatite","15","true","6","6","","","","","",""
"","","","","","","","","","","","html-keyboard-response","90","2.0.0","920366","6732593eff011c52764cee0f","4","12","null","","","","","","","","","<p style='font-size: 30px;'><strong>Okay</strong></p>","null","neutral_feedback","0","test","42","","","","","","","","","","","",""
"","","","","","","","","","","","html-button-response","91","2.0.0","928108","6732593eff011c52764cee0f","4","12","7731","","","","","","","","","<img src= ""rock_img/I_Andesite_03.jpg"" style=""width:8cm; height:5.73cm;""><p>What type of rock is this?</p>","2","class_response","0","test","43","Diorite","Andesite","03","false","3","1","","","","","",""
"","","","","","","","","","","","html-keyboard-response","92","2.0.0","928627","6732593eff011c52764cee0f","4","12","null","","","","","","","","","<p style='font-size: 30px;'><strong>Okay</strong></p>","null","neutral_feedback","0","test","43","","","","","","","","","","","",""
"","","","","","","","","","","","html-button-response","93","2.0.0","930537","6732593eff011c52764cee0f","4","12","1899","","","","","","","","","<img src= ""rock_img/I_Peridotite_02.jpg"" style=""width:8cm; height:5.859999999999999cm;""><p>What type of rock is this?</p>","2","class_response","0","test","44","Diorite","Peridotite","02","false","3","7","","","","","",""
"","","","","","","","","","","","html-keyboard-response","94","2.0.0","931043","6732593eff011c52764cee0f","4","12","null","","","","","","","","","<p style='font-size: 30px;'><strong>Okay</strong></p>","null","neutral_feedback","0","test","44","","","","","","","","","","","",""
"","","","","","","","","","","","html-button-response","95","2.0.0","935890","6732593eff011c52764cee0f","4","12","4835","","","","","","","","","<img src= ""rock_img/I_Obsidian_14.jpg"" style=""width:8cm; height:7.64cm;""><p>What type of rock is this?</p>","4","class_response","0","test","45","Obsidian","Obsidian","14","true","5","5","","","","","",""
"","","","","","","","","","","","html-keyboard-response","96","2.0.0","936404","6732593eff011c52764cee0f","4","12","null","","","","","","","","","<p style='font-size: 30px;'><strong>Okay</strong></p>","null","neutral_feedback","0","test","45","","","","","","","","","","","",""
"","","","","","","","","","","","html-button-response","97","2.0.0","944204","6732593eff011c52764cee0f","4","12","7790","","","","","","","","","<img src= ""rock_img/I_Basalt_01.jpg"" style=""width:8cm; height:7.880000000000001cm;""><p>What type of rock is this?</p>","1","class_response","0","test","46","Basalt","Basalt","01","true","2","2","","","","","",""
"","","","","","","","","","","","html-keyboard-response","98","2.0.0","944711","6732593eff011c52764cee0f","4","12","null","","","","","","","","","<p style='font-size: 30px;'><strong>Okay</strong></p>","null","neutral_feedback","0","test","46","","","","","","","","","","","",""
"","","","","","","","","","","","html-button-response","99","2.0.0","948620","6732593eff011c52764cee0f","4","12","3899","","","","","","","","","<img src= ""rock_img/I_Diorite_07.jpg"" style=""width:8cm; height:5.239999999999999cm;""><p>What type of rock is this?</p>","5","class_response","0","test","47","Pegmatite","Diorite","07","false","6","3","","","","","",""
"","","","","","","","","","","","html-keyboard-response","100","2.0.0","949140","6732593eff011c52764cee0f","4","12","null","","","","","","","","","<p style='font-size: 30px;'><strong>Okay</strong></p>","null","neutral_feedback","0","test","47","","","","","","","","","","","",""
"","","","","","","","","","","","html-button-response","101","2.0.0","950827","6732593eff011c52764cee0f","4","12","1683","","","","","","","","","<img src= ""rock_img/I_Gabbro_05.jpg"" style=""width:8cm; height:6cm;""><p>What type of rock is this?</p>","1","class_response","0","test","48","Basalt","Gabbro","05","false","2","4","","","","","",""
"","","","","","","","","","","","html-keyboard-response","102","2.0.0","951332","6732593eff011c52764cee0f","4","12","null","","","","","","","","","<p style='font-size: 30px;'><strong>Okay</strong></p>","null","neutral_feedback","0","test","48","","","","","","","","","","","",""
"","","","","","","","","","","","instructions","103","2.0.0","986720","6732593eff011c52764cee0f","4","12","35273","","","","","","","","[{""page_index"":0,""viewing_time"":30332},{""page_index"":1,""viewing_time"":4940}]","","","","","","","","","","","","","","","","","",""
"","","","","","","","","","","","html-button-response","104","2.0.0","993687","6732593eff011c52764cee0f","4","12","6960","","","","","","","","","","0","start_train","","","","","","","","","","","","","","",""
"","","","","","","","","","","","html-button-response","106","2.0.0","1003915","6732593eff011c52764cee0f","4","12","10219","","","","","","","","","<img src= ""rock_img/I_Basalt_16.jpg"" style=""width:8cm; height:7.659999999999999cm;""><p>What type of rock is this?</p>","7","class_response","1","train","1","Pumice","Basalt","16","false","8","2","","","","","",""
"","","","","","","","","","","","html-button-response","107","2.0.0","1010892","6732593eff011c52764cee0f","4","12","6969","","","","","","","","","<img src= rock_img/I_Basalt_16.jpg style=""width:8cm; height:7.659999999999999cm;""><p style='font-size: 30px; color: red;'><strong>Incorrect!</strong></p><p style='font-size: 30px;'><strong>This rock is basalt</strong></p>","0","corr_feedback","1","train","1","","","","","","","","","","","",""
"","","","","","","","","","","","html-button-response","108","2.0.0","1022310","6732593eff011c52764cee0f","4","12","11410","","","","","","","","","<img src= ""rock_img/I_Andesite_10.jpg"" style=""width:8cm; height:4.16cm;""><p>What type of rock is this?</p>","6","class_response","1","train","2","Peridotite","Andesite","10","false","7","1","","","","","",""
"","","","","","","","","","","","html-button-response","109","2.0.0","1027995","6732593eff011c52764cee0f","4","12","5681","","","","","","","","","<img src= rock_img/I_Andesite_10.jpg style=""width:8cm; height:4.16cm;""><p style='font-size: 30px; color: red;'><strong>Incorrect!</strong></p><p style='font-size: 30px;'><strong>This rock is andesite</strong></p>","0","corr_feedback","1","train","2","","","","","","","","","","","",""
"","","","","","","","","","","","html-button-response","110","2.0.0","1030307","6732593eff011c52764cee0f","4","12","2305","","","","","","","","","<img src= ""rock_img/I_Pegmatite_13.jpg"" style=""width:8cm; height:4.95cm;""><p>What type of rock is this?</p>","6","class_response","1","train","3","Peridotite","Pegmatite","13","false","7","6","","","","","",""
"","","","","","","","","","","","html-button-response","111","2.0.0","1036404","6732593eff011c52764cee0f","4","12","6090","","","","","","","","","<img src= rock_img/I_Pegmatite_13.jpg style=""width:8cm; height:4.95cm;""><p style='font-size: 30px; color: red;'><strong>Incorrect!</strong></p><p style='font-size: 30px;'><strong>This rock is pegmatite</strong></p>","0","corr_feedback","1","train","3","","","","","","","","","","","",""
"","","","","","","","","","","","html-button-response","112","2.0.0","1042383","6732593eff011c52764cee0f","4","12","5972","","","","","","","","","<img src= ""rock_img/I_Pumice_10.jpg"" style=""width:8cm; height:7.609999999999999cm;""><p>What type of rock is this?</p>","5","class_response","1","train","4","Pegmatite","Pumice","10","false","6","8","","","","","",""
"","","","","","","","","","","","html-button-response","113","2.0.0","1048625","6732593eff011c52764cee0f","4","12","6236","","","","","","","","","<img src= rock_img/I_Pumice_10.jpg style=""width:8cm; height:7.609999999999999cm;""><p style='font-size: 30px; color: red;'><strong>Incorrect!</strong></p><p style='font-size: 30px;'><strong>This rock is pumice</strong></p>","0","corr_feedback","1","train","4","","","","","","","","","","","",""
"","","","","","","","","","","","html-button-response","114","2.0.0","1051516","6732593eff011c52764cee0f","4","12","2885","","","","","","","","","<img src= ""rock_img/I_Obsidian_09.jpg"" style=""width:8cm; height:5cm;""><p>What type of rock is this?</p>","4","class_response","1","train","5","Obsidian","Obsidian","09","true","5","5","","","","","",""
"","","","","","","","","","","","html-button-response","115","2.0.0","1053232","6732593eff011c52764cee0f","4","12","1709","","","","","","","","","<img src= rock_img/I_Obsidian_09.jpg style=""width:8cm; height:5cm;""><p style='font-size: 30px; color: green;'><strong>Correct!</strong></p><p style='font-size: 30px;'><strong>This rock is obsidian</strong></p>","0","corr_feedback","1","train","5","","","","","","","","","","","",""
"","","","","","","","","","","","html-button-response","116","2.0.0","1073893","6732593eff011c52764cee0f","4","12","20654","","","","","","","","","<img src= ""rock_img/I_Gabbro_14.jpg"" style=""width:8cm; height:8.48cm;""><p>What type of rock is this?</p>","6","class_response","1","train","6","Peridotite","Gabbro","14","false","7","4","","","","","",""
"","","","","","","","","","","","html-button-response","117","2.0.0","1078018","6732593eff011c52764cee0f","4","12","4119","","","","","","","","","<img src= rock_img/I_Gabbro_14.jpg style=""width:8cm; height:8.48cm;""><p style='font-size: 30px; color: red;'><strong>Incorrect!</strong></p><p style='font-size: 30px;'><strong>This rock is gabbro</strong></p>","0","corr_feedback","1","train","6","","","","","","","","","","","",""
"","","","","","","","","","","","html-button-response","118","2.0.0","1088080","6732593eff011c52764cee0f","4","12","10054","","","","","","","","","<img src= ""rock_img/I_Pegmatite_07.jpg"" style=""width:8cm; height:6.7cm;""><p>What type of rock is this?</p>","5","class_response","1","train","7","Pegmatite","Pegmatite","07","true","6","6","","","","","",""
"","","","","","","","","","","","html-button-response","119","2.0.0","1089399","6732593eff011c52764cee0f","4","12","1315","","","","","","","","","<img src= rock_img/I_Pegmatite_07.jpg style=""width:8cm; height:6.7cm;""><p style='font-size: 30px; color: green;'><strong>Correct!</strong></p><p style='font-size: 30px;'><strong>This rock is pegmatite</strong></p>","0","corr_feedback","1","train","7","","","","","","","","","","","",""
"","","","","","","","","","","","html-button-response","120","2.0.0","1093012","6732593eff011c52764cee0f","4","12","3606","","","","","","","","","<img src= ""rock_img/I_Gabbro_16.jpg"" style=""width:8cm; height:6.44cm;""><p>What type of rock is this?</p>","1","class_response","1","train","8","Basalt","Gabbro","16","false","2","4","","","","","",""
"","","","","","","","","","","","html-button-response","121","2.0.0","1094924","6732593eff011c52764cee0f","4","12","1906","","","","","","","","","<img src= rock_img/I_Gabbro_16.jpg style=""width:8cm; height:6.44cm;""><p style='font-size: 30px; color: red;'><strong>Incorrect!</strong></p><p style='font-size: 30px;'><strong>This rock is gabbro</strong></p>","0","corr_feedback","1","train","8","","","","","","","","","","","",""
"","","","","","","","","","","","html-button-response","122","2.0.0","1100572","6732593eff011c52764cee0f","4","12","5642","","","","","","","","","<img src= ""rock_img/I_Diorite_02.jpg"" style=""width:8cm; height:6.27cm;""><p>What type of rock is this?</p>","0","class_response","1","train","9","Andesite","Diorite","02","false","1","3","","","","","",""
"","","","","","","","","","","","html-button-response","123","2.0.0","1106116","6732593eff011c52764cee0f","4","12","5538","","","","","","","","","<img src= rock_img/I_Diorite_02.jpg style=""width:8cm; height:6.27cm;""><p style='font-size: 30px; color: red;'><strong>Incorrect!</strong></p><p style='font-size: 30px;'><strong>This rock is diorite</strong></p>","0","corr_feedback","1","train","9","","","","","","","","","","","",""
"","","","","","","","","","","","html-button-response","124","2.0.0","1108507","6732593eff011c52764cee0f","4","12","2384","","","","","","","","","<img src= ""rock_img/I_Obsidian_08.jpg"" style=""width:8cm; height:7.39cm;""><p>What type of rock is this?</p>","4","class_response","1","train","10","Obsidian","Obsidian","08","true","5","5","","","","","",""
"","","","","","","","","","","","html-button-response","125","2.0.0","1109867","6732593eff011c52764cee0f","4","12","1354","","","","","","","","","<img src= rock_img/I_Obsidian_08.jpg style=""width:8cm; height:7.39cm;""><p style='font-size: 30px; color: green;'><strong>Correct!</strong></p><p style='font-size: 30px;'><strong>This rock is obsidian</strong></p>","0","corr_feedback","1","train","10","","","","","","","","","","","",""
"","","","","","","","","","","","html-button-response","126","2.0.0","1113839","6732593eff011c52764cee0f","4","12","3966","","","","","","","","","<img src= ""rock_img/I_Basalt_10.jpg"" style=""width:8cm; height:5.85cm;""><p>What type of rock is this?</p>","1","class_response","1","train","11","Basalt","Basalt","10","true","2","2","","","","","",""
"","","","","","","","","","","","html-button-response","127","2.0.0","1115060","6732593eff011c52764cee0f","4","12","1215","","","","","","","","","<img src= rock_img/I_Basalt_10.jpg style=""width:8cm; height:5.85cm;""><p style='font-size: 30px; color: green;'><strong>Correct!</strong></p><p style='font-size: 30px;'><strong>This rock is basalt</strong></p>","0","corr_feedback","1","train","11","","","","","","","","","","","",""
"","","","","","","","","","","","html-button-response","128","2.0.0","1127465","6732593eff011c52764cee0f","4","12","12398","","","","","","","","","<img src= ""rock_img/I_Peridotite_08.jpg"" style=""width:8cm; height:6.7cm;""><p>What type of rock is this?</p>","6","class_response","1","train","12","Peridotite","Peridotite","08","true","7","7","","","","","",""
"","","","","","","","","","","","html-button-response","129","2.0.0","1129532","6732593eff011c52764cee0f","4","12","2061","","","","","","","","","<img src= rock_img/I_Peridotite_08.jpg style=""width:8cm; height:6.7cm;""><p style='font-size: 30px; color: green;'><strong>Correct!</strong></p><p style='font-size: 30px;'><strong>This rock is peridotite</strong></p>","0","corr_feedback","1","train","12","","","","","","","","","","","",""
"","","","","","","","","","","","instructions","130","2.0.0","1263065","6732593eff011c52764cee0f","4","12","133537","","","","","","","","[{""page_index"":0,""viewing_time"":4933},{""page_index"":1,""viewing_time"":75471},{""page_index"":2,""viewing_time"":41021},{""page_index"":3,""viewing_time"":12111}]","","","","","","","","","","","","","","","","","",""
"","","","","","","","","","","","html-button-response","131","2.0.0","1265393","6732593eff011c52764cee0f","4","12","2323","","","","","","","","","","0","start_train","","","","","","","","","","","","","","",""
"","","","","","","","","","","","html-button-response","132","2.0.0","1273824","6732593eff011c52764cee0f","4","12","","","","","","","","","","","","cat_selection","1","train","1","","","","","","","6245","2179.2000000476837","6","1","",""
