"width","height","webaudio","browser","browser_version","mobile","os","fullscreen","vsync_rate","webcam","microphone","trial_type","trial_index","plugin_version","time_elapsed","subjID","condition","stimID","rt","url","success","value","timeout","failed_images","failed_audio","failed_video","view_history","stimulus","response","trialType","cycle","phase","trial","resp","cat","token","corr","resp_num","cat_num","time_fb1","time_fb2"
"1920","953","true","chrome","130.0.0","false","Windows 10","true","60.47","true","true","browser-check","0","2.0.0","1008","5c796f4b4855980016a15557","1","12","","","","","","","","","","","","","","","","","","","","","","",""
"","","","","","","","","","","","external-html","1","2.0.0","13358","5c796f4b4855980016a15557","1","12","12214","consent_form.html","","","","","","","","","","","","","","","","","","","","",""
"","","","","","","","","","","","fullscreen","2","2.0.0","16002","5c796f4b4855980016a15557","1","12","1640","","true","","","","","","","","","","","","","","","","","","","",""
"","","","","","","","","","","","call-function","3","2.0.0","16003","5c796f4b4855980016a15557","1","12","","","","{}","","","","","","","","","","","","","","","","","","",""
"","","","","","","","","","","","preload","4","2.0.0","19495","5c796f4b4855980016a15557","1","12","","","true","","false","[]","[]","[]","","","","","","","","","","","","","","",""
"","","","","","","","","","","","instructions","5","2.0.0","76148","5c796f4b4855980016a15557","1","12","56652","","","","","","","","[{""page_index"":0,""viewing_time"":5213},{""page_index"":1,""viewing_time"":41455},{""page_index"":2,""viewing_time"":9983}]","","","","","","","","","","","","","",""
"","","","","","","","","","","","html-button-response","6","2.0.0","78080","5c796f4b4855980016a15557","1","12","1930","","","","","","","","","","0","start_test","","","","","","","","","","",""
"","","","","","","","","","","","html-button-response","7","2.0.0","87728","5c796f4b4855980016a15557","1","12","9645","","","","","","","","","<img src= ""rock_img/I_Peridotite_02.jpg"" style=""width:8cm; height:5.859999999999999cm;""><p>What type of rock is this?</p>","1","class_response","0","test","1","Basalt","Peridotite","02","false","2","7","",""
"","","","","","","","","","","","html-keyboard-response","8","2.0.0","88233","5c796f4b4855980016a15557","1","12","null","","","","","","","","","<p style='font-size: 30px;'><strong>Okay</strong></p>","null","neutral_feedback","0","test","1","","","","","","","",""
"","","","","","","","","","","","html-button-response","9","2.0.0","91819","5c796f4b4855980016a15557","1","12","3584","","","","","","","","","<img src= ""rock_img/I_Diorite_16.jpg"" style=""width:8cm; height:6.74cm;""><p>What type of rock is this?</p>","2","class_response","0","test","2","Diorite","Diorite","16","true","3","3","",""
"","","","","","","","","","","","html-keyboard-response","10","2.0.0","92334","5c796f4b4855980016a15557","1","12","null","","","","","","","","","<p style='font-size: 30px;'><strong>Okay</strong></p>","null","neutral_feedback","0","test","2","","","","","","","",""
"","","","","","","","","","","","html-button-response","11","2.0.0","99606","5c796f4b4855980016a15557","1","12","7271","","","","","","","","","<img src= ""rock_img/I_Basalt_02.jpg"" style=""width:8cm; height:6.45cm;""><p>What type of rock is this?</p>","5","class_response","0","test","3","Pegmatite","Basalt","02","false","6","2","",""
"","","","","","","","","","","","html-keyboard-response","12","2.0.0","100110","5c796f4b4855980016a15557","1","12","null","","","","","","","","","<p style='font-size: 30px;'><strong>Okay</strong></p>","null","neutral_feedback","0","test","3","","","","","","","",""
"","","","","","","","","","","","html-button-response","13","2.0.0","102269","5c796f4b4855980016a15557","1","12","2157","","","","","","","","","<img src= ""rock_img/I_Gabbro_11.jpg"" style=""width:8cm; height:6.2cm;""><p>What type of rock is this?</p>","6","class_response","0","test","4","Peridotite","Gabbro","11","false","7","4","",""
"","","","","","","","","","","","html-keyboard-response","14","2.0.0","102785","5c796f4b4855980016a15557","1","12","null","","","","","","","","","<p style='font-size: 30px;'><strong>Okay</strong></p>","null","neutral_feedback","0","test","4","","","","","","","",""
"","","","","","","","","","","","html-button-response","15","2.0.0","106086","5c796f4b4855980016a15557","1","12","3300","","","","","","","","","<img src= ""rock_img/I_Pegmatite_16.jpg"" style=""width:8cm; height:5.8cm;""><p>What type of rock is this?</p>","0","class_response","0","test","5","Andesite","Pegmatite","16","false","1","6","",""
"","","","","","","","","","","","html-keyboard-response","16","2.0.0","106593","5c796f4b4855980016a15557","1","12","null","","","","","","","","","<p style='font-size: 30px;'><strong>Okay</strong></p>","null","neutral_feedback","0","test","5","","","","","","","",""
"","","","","","","","","","","","html-button-response","17","2.0.0","108174","5c796f4b4855980016a15557","1","12","1579","","","","","","","","","<img src= ""rock_img/I_Pumice_03.jpg"" style=""width:8cm; height:6.64cm;""><p>What type of rock is this?</p>","7","class_response","0","test","6","Pumice","Pumice","03","true","8","8","",""
"","","","","","","","","","","","html-keyboard-response","18","2.0.0","108681","5c796f4b4855980016a15557","1","12","null","","","","","","","","","<p style='font-size: 30px;'><strong>Okay</strong></p>","null","neutral_feedback","0","test","6","","","","","","","",""
"","","","","","","","","","","","html-button-response","19","2.0.0","114197","5c796f4b4855980016a15557","1","12","5514","","","","","","","","","<img src= ""rock_img/I_Pumice_04.jpg"" style=""width:8cm; height:6.819999999999999cm;""><p>What type of rock is this?</p>","3","class_response","0","test","7","Gabbro","Pumice","04","false","4","8","",""
"","","","","","","","","","","","html-keyboard-response","20","2.0.0","114699","5c796f4b4855980016a15557","1","12","null","","","","","","","","","<p style='font-size: 30px;'><strong>Okay</strong></p>","null","neutral_feedback","0","test","7","","","","","","","",""
"","","","","","","","","","","","html-button-response","21","2.0.0","118036","5c796f4b4855980016a15557","1","12","3335","","","","","","","","","<img src= ""rock_img/I_Basalt_01.jpg"" style=""width:8cm; height:7.880000000000001cm;""><p>What type of rock is this?</p>","1","class_response","0","test","8","Basalt","Basalt","01","true","2","2","",""
"","","","","","","","","","","","html-keyboard-response","22","2.0.0","118552","5c796f4b4855980016a15557","1","12","null","","","","","","","","","<p style='font-size: 30px;'><strong>Okay</strong></p>","null","neutral_feedback","0","test","8","","","","","","","",""
"","","","","","","","","","","","html-button-response","23","2.0.0","121252","5c796f4b4855980016a15557","1","12","2698","","","","","","","","","<img src= ""rock_img/I_Diorite_07.jpg"" style=""width:8cm; height:5.239999999999999cm;""><p>What type of rock is this?</p>","2","class_response","0","test","9","Diorite","Diorite","07","true","3","3","",""
"","","","","","","","","","","","html-keyboard-response","24","2.0.0","121760","5c796f4b4855980016a15557","1","12","null","","","","","","","","","<p style='font-size: 30px;'><strong>Okay</strong></p>","null","neutral_feedback","0","test","9","","","","","","","",""
"","","","","","","","","","","","html-button-response","25","2.0.0","125378","5c796f4b4855980016a15557","1","12","3617","","","","","","","","","<img src= ""rock_img/I_Peridotite_16.jpg"" style=""width:8cm; height:6.989999999999999cm;""><p>What type of rock is this?</p>","4","class_response","0","test","10","Obsidian","Peridotite","16","false","5","7","",""
"","","","","","","","","","","","html-keyboard-response","26","2.0.0","125880","5c796f4b4855980016a15557","1","12","null","","","","","","","","","<p style='font-size: 30px;'><strong>Okay</strong></p>","null","neutral_feedback","0","test","10","","","","","","","",""
"","","","","","","","","","","","html-button-response","27","2.0.0","129470","5c796f4b4855980016a15557","1","12","3589","","","","","","","","","<img src= ""rock_img/I_Obsidian_06.jpg"" style=""width:8cm; height:6.8cm;""><p>What type of rock is this?</p>","4","class_response","0","test","11","Obsidian","Obsidian","06","true","5","5","",""
"","","","","","","","","","","","html-keyboard-response","28","2.0.0","129974","5c796f4b4855980016a15557","1","12","null","","","","","","","","","<p style='font-size: 30px;'><strong>Okay</strong></p>","null","neutral_feedback","0","test","11","","","","","","","",""
"","","","","","","","","","","","html-button-response","29","2.0.0","132362","5c796f4b4855980016a15557","1","12","2387","","","","","","","","","<img src= ""rock_img/I_Diorite_08.jpg"" style=""width:8cm; height:6.37cm;""><p>What type of rock is this?</p>","2","class_response","0","test","12","Diorite","Diorite","08","true","3","3","",""
"","","","","","","","","","","","html-keyboard-response","30","2.0.0","132872","5c796f4b4855980016a15557","1","12","null","","","","","","","","","<p style='font-size: 30px;'><strong>Okay</strong></p>","null","neutral_feedback","0","test","12","","","","","","","",""
"","","","","","","","","","","","html-button-response","31","2.0.0","134234","5c796f4b4855980016a15557","1","12","1361","","","","","","","","","<img src= ""rock_img/I_Obsidian_07.jpg"" style=""width:8cm; height:4.76cm;""><p>What type of rock is this?</p>","5","class_response","0","test","13","Pegmatite","Obsidian","07","false","6","5","",""
"","","","","","","","","","","","html-keyboard-response","32","2.0.0","134740","5c796f4b4855980016a15557","1","12","null","","","","","","","","","<p style='font-size: 30px;'><strong>Okay</strong></p>","null","neutral_feedback","0","test","13","","","","","","","",""
"","","","","","","","","","","","html-button-response","33","2.0.0","135758","5c796f4b4855980016a15557","1","12","1017","","","","","","","","","<img src= ""rock_img/I_Pegmatite_03.jpg"" style=""width:8cm; height:5.239999999999999cm;""><p>What type of rock is this?</p>","5","class_response","0","test","14","Pegmatite","Pegmatite","03","true","6","6","",""
"","","","","","","","","","","","html-keyboard-response","34","2.0.0","136270","5c796f4b4855980016a15557","1","12","null","","","","","","","","","<p style='font-size: 30px;'><strong>Okay</strong></p>","null","neutral_feedback","0","test","14","","","","","","","",""
"","","","","","","","","","","","html-button-response","35","2.0.0","137954","5c796f4b4855980016a15557","1","12","1682","","","","","","","","","<img src= ""rock_img/I_Andesite_01.jpg"" style=""width:8cm; height:5.87cm;""><p>What type of rock is this?</p>","6","class_response","0","test","15","Peridotite","Andesite","01","false","7","1","",""
"","","","","","","","","","","","html-keyboard-response","36","2.0.0","138470","5c796f4b4855980016a15557","1","12","null","","","","","","","","","<p style='font-size: 30px;'><strong>Okay</strong></p>","null","neutral_feedback","0","test","15","","","","","","","",""
"","","","","","","","","","","","html-button-response","37","2.0.0","140954","5c796f4b4855980016a15557","1","12","2483","","","","","","","","","<img src= ""rock_img/I_Basalt_14.jpg"" style=""width:8cm; height:5.82cm;""><p>What type of rock is this?</p>","3","class_response","0","test","16","Gabbro","Basalt","14","false","4","2","",""
"","","","","","","","","","","","html-keyboard-response","38","2.0.0","141469","5c796f4b4855980016a15557","1","12","null","","","","","","","","","<p style='font-size: 30px;'><strong>Okay</strong></p>","null","neutral_feedback","0","test","16","","","","","","","",""
"","","","","","","","","","","","html-button-response","39","2.0.0","145381","5c796f4b4855980016a15557","1","12","3911","","","","","","","","","<img src= ""rock_img/I_Pegmatite_10.jpg"" style=""width:8cm; height:4.16cm;""><p>What type of rock is this?</p>","0","class_response","0","test","17","Andesite","Pegmatite","10","false","1","6","",""
"","","","","","","","","","","","html-keyboard-response","40","2.0.0","145884","5c796f4b4855980016a15557","1","12","null","","","","","","","","","<p style='font-size: 30px;'><strong>Okay</strong></p>","null","neutral_feedback","0","test","17","","","","","","","",""
"","","","","","","","","","","","html-button-response","41","2.0.0","150709","5c796f4b4855980016a15557","1","12","4824","","","","","","","","","<img src= ""rock_img/I_Peridotite_07.jpg"" style=""width:8cm; height:4.83cm;""><p>What type of rock is this?</p>","6","class_response","0","test","18","Peridotite","Peridotite","07","true","7","7","",""
"","","","","","","","","","","","html-keyboard-response","42","2.0.0","151216","5c796f4b4855980016a15557","1","12","null","","","","","","","","","<p style='font-size: 30px;'><strong>Okay</strong></p>","null","neutral_feedback","0","test","18","","","","","","","",""
"","","","","","","","","","","","html-button-response","43","2.0.0","152076","5c796f4b4855980016a15557","1","12","859","","","","","","","","","<img src= ""rock_img/I_Gabbro_10.jpg"" style=""width:8cm; height:5.680000000000001cm;""><p>What type of rock is this?</p>","6","class_response","0","test","19","Peridotite","Gabbro","10","false","7","4","",""
"","","","","","","","","","","","html-keyboard-response","44","2.0.0","152582","5c796f4b4855980016a15557","1","12","null","","","","","","","","","<p style='font-size: 30px;'><strong>Okay</strong></p>","null","neutral_feedback","0","test","19","","","","","","","",""
"","","","","","","","","","","","html-button-response","45","2.0.0","155256","5c796f4b4855980016a15557","1","12","2673","","","","","","","","","<img src= ""rock_img/I_Gabbro_01.jpg"" style=""width:8cm; height:5.21cm;""><p>What type of rock is this?</p>","2","class_response","0","test","20","Diorite","Gabbro","01","false","3","4","",""
"","","","","","","","","","","","html-keyboard-response","46","2.0.0","155763","5c796f4b4855980016a15557","1","12","null","","","","","","","","","<p style='font-size: 30px;'><strong>Okay</strong></p>","null","neutral_feedback","0","test","20","","","","","","","",""
"","","","","","","","","","","","html-button-response","47","2.0.0","158339","5c796f4b4855980016a15557","1","12","2575","","","","","","","","","<img src= ""rock_img/I_Peridotite_14.jpg"" style=""width:8cm; height:5.3cm;""><p>What type of rock is this?</p>","0","class_response","0","test","21","Andesite","Peridotite","14","false","1","7","",""
"","","","","","","","","","","","html-keyboard-response","48","2.0.0","158846","5c796f4b4855980016a15557","1","12","null","","","","","","","","","<p style='font-size: 30px;'><strong>Okay</strong></p>","null","neutral_feedback","0","test","21","","","","","","","",""
"","","","","","","","","","","","html-button-response","49","2.0.0","161521","5c796f4b4855980016a15557","1","12","2674","","","","","","","","","<img src= ""rock_img/I_Pumice_08.jpg"" style=""width:8cm; height:6.67cm;""><p>What type of rock is this?</p>","1","class_response","0","test","22","Basalt","Pumice","08","false","2","8","",""
"","","","","","","","","","","","html-keyboard-response","50","2.0.0","162032","5c796f4b4855980016a15557","1","12","null","","","","","","","","","<p style='font-size: 30px;'><strong>Okay</strong></p>","null","neutral_feedback","0","test","22","","","","","","","",""
"","","","","","","","","","","","html-button-response","51","2.0.0","164087","5c796f4b4855980016a15557","1","12","2054","","","","","","","","","<img src= ""rock_img/I_Basalt_09.jpg"" style=""width:8cm; height:6.2cm;""><p>What type of rock is this?</p>","5","class_response","0","test","23","Pegmatite","Basalt","09","false","6","2","",""
"","","","","","","","","","","","html-keyboard-response","52","2.0.0","164594","5c796f4b4855980016a15557","1","12","null","","","","","","","","","<p style='font-size: 30px;'><strong>Okay</strong></p>","null","neutral_feedback","0","test","23","","","","","","","",""
"","","","","","","","","","","","html-button-response","53","2.0.0","166354","5c796f4b4855980016a15557","1","12","1759","","","","","","","","","<img src= ""rock_img/I_Andesite_11.jpg"" style=""width:8cm; height:4.92cm;""><p>What type of rock is this?</p>","6","class_response","0","test","24","Peridotite","Andesite","11","false","7","1","",""
"","","","","","","","","","","","html-keyboard-response","54","2.0.0","166860","5c796f4b4855980016a15557","1","12","null","","","","","","","","","<p style='font-size: 30px;'><strong>Okay</strong></p>","null","neutral_feedback","0","test","24","","","","","","","",""
"","","","","","","","","","","","html-button-response","55","2.0.0","168287","5c796f4b4855980016a15557","1","12","1426","","","","","","","","","<img src= ""rock_img/I_Pegmatite_15.jpg"" style=""width:8cm; height:6cm;""><p>What type of rock is this?</p>","2","class_response","0","test","25","Diorite","Pegmatite","15","false","3","6","",""
"","","","","","","","","","","","html-keyboard-response","56","2.0.0","168793","5c796f4b4855980016a15557","1","12","null","","","","","","","","","<p style='font-size: 30px;'><strong>Okay</strong></p>","null","neutral_feedback","0","test","25","","","","","","","",""
"","","","","","","","","","","","html-button-response","57","2.0.0","170951","5c796f4b4855980016a15557","1","12","2157","","","","","","","","","<img src= ""rock_img/I_Gabbro_15.jpg"" style=""width:8cm; height:6.29cm;""><p>What type of rock is this?</p>","3","class_response","0","test","26","Gabbro","Gabbro","15","true","4","4","",""
"","","","","","","","","","","","html-keyboard-response","58","2.0.0","171458","5c796f4b4855980016a15557","1","12","null","","","","","","","","","<p style='font-size: 30px;'><strong>Okay</strong></p>","null","neutral_feedback","0","test","26","","","","","","","",""
"","","","","","","","","","","","html-button-response","59","2.0.0","173530","5c796f4b4855980016a15557","1","12","2071","","","","","","","","","<img src= ""rock_img/I_Gabbro_05.jpg"" style=""width:8cm; height:6cm;""><p>What type of rock is this?</p>","5","class_response","0","test","27","Pegmatite","Gabbro","05","false","6","4","",""
"","","","","","","","","","","","html-keyboard-response","60","2.0.0","174040","5c796f4b4855980016a15557","1","12","null","","","","","","","","","<p style='font-size: 30px;'><strong>Okay</strong></p>","null","neutral_feedback","0","test","27","","","","","","","",""
"","","","","","","","","","","","html-button-response","61","2.0.0","176049","5c796f4b4855980016a15557","1","12","2007","","","","","","","","","<img src= ""rock_img/I_Diorite_11.jpg"" style=""width:8cm; height:7.11cm;""><p>What type of rock is this?</p>","2","class_response","0","test","28","Diorite","Diorite","11","true","3","3","",""
"","","","","","","","","","","","html-keyboard-response","62","2.0.0","176562","5c796f4b4855980016a15557","1","12","null","","","","","","","","","<p style='font-size: 30px;'><strong>Okay</strong></p>","null","neutral_feedback","0","test","28","","","","","","","",""
"","","","","","","","","","","","html-button-response","63","2.0.0","178715","5c796f4b4855980016a15557","1","12","2151","","","","","","","","","<img src= ""rock_img/I_Obsidian_14.jpg"" style=""width:8cm; height:7.64cm;""><p>What type of rock is this?</p>","4","class_response","0","test","29","Obsidian","Obsidian","14","true","5","5","",""
"","","","","","","","","","","","html-keyboard-response","64","2.0.0","179222","5c796f4b4855980016a15557","1","12","null","","","","","","","","","<p style='font-size: 30px;'><strong>Okay</strong></p>","null","neutral_feedback","0","test","29","","","","","","","",""
"","","","","","","","","","","","html-button-response","65","2.0.0","180695","5c796f4b4855980016a15557","1","12","1471","","","","","","","","","<img src= ""rock_img/I_Pumice_05.jpg"" style=""width:8cm; height:7.25cm;""><p>What type of rock is this?</p>","7","class_response","0","test","30","Pumice","Pumice","05","true","8","8","",""
"","","","","","","","","","","","html-keyboard-response","66","2.0.0","181200","5c796f4b4855980016a15557","1","12","null","","","","","","","","","<p style='font-size: 30px;'><strong>Okay</strong></p>","null","neutral_feedback","0","test","30","","","","","","","",""
"","","","","","","","","","","","html-button-response","67","2.0.0","185086","5c796f4b4855980016a15557","1","12","3884","","","","","","","","","<img src= ""rock_img/I_Gabbro_03.jpg"" style=""width:8cm; height:8.52cm;""><p>What type of rock is this?</p>","5","class_response","0","test","31","Pegmatite","Gabbro","03","false","6","4","",""
"","","","","","","","","","","","html-keyboard-response","68","2.0.0","185587","5c796f4b4855980016a15557","1","12","null","","","","","","","","","<p style='font-size: 30px;'><strong>Okay</strong></p>","null","neutral_feedback","0","test","31","","","","","","","",""
"","","","","","","","","","","","html-button-response","69","2.0.0","187428","5c796f4b4855980016a15557","1","12","1839","","","","","","","","","<img src= ""rock_img/I_Peridotite_12.jpg"" style=""width:8cm; height:4.54cm;""><p>What type of rock is this?</p>","2","class_response","0","test","32","Diorite","Peridotite","12","false","3","7","",""
"","","","","","","","","","","","html-keyboard-response","70","2.0.0","187930","5c796f4b4855980016a15557","1","12","null","","","","","","","","","<p style='font-size: 30px;'><strong>Okay</strong></p>","null","neutral_feedback","0","test","32","","","","","","","",""
"","","","","","","","","","","","html-button-response","71","2.0.0","193678","5c796f4b4855980016a15557","1","12","5746","","","","","","","","","<img src= ""rock_img/I_Andesite_16.jpg"" style=""width:8cm; height:6.010000000000001cm;""><p>What type of rock is this?</p>","6","class_response","0","test","33","Peridotite","Andesite","16","false","7","1","",""
"","","","","","","","","","","","html-keyboard-response","72","2.0.0","194179","5c796f4b4855980016a15557","1","12","null","","","","","","","","","<p style='font-size: 30px;'><strong>Okay</strong></p>","null","neutral_feedback","0","test","33","","","","","","","",""
"","","","","","","","","","","","html-button-response","73","2.0.0","218418","5c796f4b4855980016a15557","1","12","24238","","","","","","","","","<img src= ""rock_img/I_Diorite_10.jpg"" style=""width:8cm; height:5.949999999999999cm;""><p>What type of rock is this?</p>","0","class_response","0","test","34","Andesite","Diorite","10","false","1","3","",""
"","","","","","","","","","","","html-keyboard-response","74","2.0.0","218930","5c796f4b4855980016a15557","1","12","null","","","","","","","","","<p style='font-size: 30px;'><strong>Okay</strong></p>","null","neutral_feedback","0","test","34","","","","","","","",""
"","","","","","","","","","","","html-button-response","75","2.0.0","241804","5c796f4b4855980016a15557","1","12","22872","","","","","","","","","<img src= ""rock_img/I_Andesite_03.jpg"" style=""width:8cm; height:5.73cm;""><p>What type of rock is this?</p>","1","class_response","0","test","35","Basalt","Andesite","03","false","2","1","",""
"","","","","","","","","","","","html-keyboard-response","76","2.0.0","242320","5c796f4b4855980016a15557","1","12","null","","","","","","","","","<p style='font-size: 30px;'><strong>Okay</strong></p>","null","neutral_feedback","0","test","35","","","","","","","",""
"","","","","","","","","","","","html-button-response","77","2.0.0","245069","5c796f4b4855980016a15557","1","12","2747","","","","","","","","","<img src= ""rock_img/I_Pumice_09.jpg"" style=""width:8cm; height:6.44cm;""><p>What type of rock is this?</p>","7","class_response","0","test","36","Pumice","Pumice","09","true","8","8","",""
"","","","","","","","","","","","html-keyboard-response","78","2.0.0","245581","5c796f4b4855980016a15557","1","12","null","","","","","","","","","<p style='font-size: 30px;'><strong>Okay</strong></p>","null","neutral_feedback","0","test","36","","","","","","","",""
"","","","","","","","","","","","html-button-response","79","2.0.0","257128","5c796f4b4855980016a15557","1","12","11545","","","","","","","","","<img src= ""rock_img/I_Basalt_08.jpg"" style=""width:8cm; height:10.44cm;""><p>What type of rock is this?</p>","4","class_response","0","test","37","Obsidian","Basalt","08","false","5","2","",""
"","","","","","","","","","","","html-keyboard-response","80","2.0.0","257629","5c796f4b4855980016a15557","1","12","null","","","","","","","","","<p style='font-size: 30px;'><strong>Okay</strong></p>","null","neutral_feedback","0","test","37","","","","","","","",""
"","","","","","","","","","","","html-button-response","81","2.0.0","259996","5c796f4b4855980016a15557","1","12","2365","","","","","","","","","<img src= ""rock_img/I_Pegmatite_08.jpg"" style=""width:8cm; height:7.68cm;""><p>What type of rock is this?</p>","5","class_response","0","test","38","Pegmatite","Pegmatite","08","true","6","6","",""
"","","","","","","","","","","","html-keyboard-response","82","2.0.0","260509","5c796f4b4855980016a15557","1","12","null","","","","","","","","","<p style='font-size: 30px;'><strong>Okay</strong></p>","null","neutral_feedback","0","test","38","","","","","","","",""
"","","","","","","","","","","","html-button-response","83","2.0.0","262658","5c796f4b4855980016a15557","1","12","2148","","","","","","","","","<img src= ""rock_img/I_Obsidian_04.jpg"" style=""width:8cm; height:6.930000000000001cm;""><p>What type of rock is this?</p>","4","class_response","0","test","39","Obsidian","Obsidian","04","true","5","5","",""
"","","","","","","","","","","","html-keyboard-response","84","2.0.0","263160","5c796f4b4855980016a15557","1","12","null","","","","","","","","","<p style='font-size: 30px;'><strong>Okay</strong></p>","null","neutral_feedback","0","test","39","","","","","","","",""
"","","","","","","","","","","","html-button-response","85","2.0.0","280478","5c796f4b4855980016a15557","1","12","17316","","","","","","","","","<img src= ""rock_img/I_Diorite_15.jpg"" style=""width:8cm; height:5.54cm;""><p>What type of rock is this?</p>","6","class_response","0","test","40","Peridotite","Diorite","15","false","7","3","",""
"","","","","","","","","","","","html-keyboard-response","86","2.0.0","280990","5c796f4b4855980016a15557","1","12","null","","","","","","","","","<p style='font-size: 30px;'><strong>Okay</strong></p>","null","neutral_feedback","0","test","40","","","","","","","",""
"","","","","","","","","","","","html-button-response","87","2.0.0","301030","5c796f4b4855980016a15557","1","12","20039","","","","","","","","","<img src= ""rock_img/I_Obsidian_16.jpg"" style=""width:8cm; height:9.3cm;""><p>What type of rock is this?</p>","4","class_response","0","test","41","Obsidian","Obsidian","16","true","5","5","",""
"","","","","","","","","","","","html-keyboard-response","88","2.0.0","301531","5c796f4b4855980016a15557","1","12","null","","","","","","","","","<p style='font-size: 30px;'><strong>Okay</strong></p>","null","neutral_feedback","0","test","41","","","","","","","",""
"","","","","","","","","","","","html-button-response","89","2.0.0","314878","5c796f4b4855980016a15557","1","12","13345","","","","","","","","","<img src= ""rock_img/I_Andesite_05.jpg"" style=""width:8cm; height:4.12cm;""><p>What type of rock is this?</p>","2","class_response","0","test","42","Diorite","Andesite","05","false","3","1","",""
"","","","","","","","","","","","html-keyboard-response","90","2.0.0","315389","5c796f4b4855980016a15557","1","12","null","","","","","","","","","<p style='font-size: 30px;'><strong>Okay</strong></p>","null","neutral_feedback","0","test","42","","","","","","","",""
"","","","","","","","","","","","html-button-response","91","2.0.0","318729","5c796f4b4855980016a15557","1","12","3339","","","","","","","","","<img src= ""rock_img/I_Pumice_14.jpg"" style=""width:8cm; height:6.39cm;""><p>What type of rock is this?</p>","7","class_response","0","test","43","Pumice","Pumice","14","true","8","8","",""
"","","","","","","","","","","","html-keyboard-response","92","2.0.0","319240","5c796f4b4855980016a15557","1","12","null","","","","","","","","","<p style='font-size: 30px;'><strong>Okay</strong></p>","null","neutral_feedback","0","test","43","","","","","","","",""
"","","","","","","","","","","","html-button-response","93","2.0.0","326061","5c796f4b4855980016a15557","1","12","6820","","","","","","","","","<img src= ""rock_img/I_Peridotite_06.jpg"" style=""width:8cm; height:7.53cm;""><p>What type of rock is this?</p>","6","class_response","0","test","44","Peridotite","Peridotite","06","true","7","7","",""
"","","","","","","","","","","","html-keyboard-response","94","2.0.0","326577","5c796f4b4855980016a15557","1","12","null","","","","","","","","","<p style='font-size: 30px;'><strong>Okay</strong></p>","null","neutral_feedback","0","test","44","","","","","","","",""
"","","","","","","","","","","","html-button-response","95","2.0.0","361961","5c796f4b4855980016a15557","1","12","35383","","","","","","","","","<img src= ""rock_img/I_Basalt_05.jpg"" style=""width:8cm; height:8.18cm;""><p>What type of rock is this?</p>","1","class_response","0","test","45","Basalt","Basalt","05","true","2","2","",""
"","","","","","","","","","","","html-keyboard-response","96","2.0.0","362473","5c796f4b4855980016a15557","1","12","null","","","","","","","","","<p style='font-size: 30px;'><strong>Okay</strong></p>","null","neutral_feedback","0","test","45","","","","","","","",""
"","","","","","","","","","","","html-button-response","97","2.0.0","373409","5c796f4b4855980016a15557","1","12","10935","","","","","","","","","<img src= ""rock_img/I_Pegmatite_12.jpg"" style=""width:8cm; height:5.7cm;""><p>What type of rock is this?</p>","5","class_response","0","test","46","Pegmatite","Pegmatite","12","true","6","6","",""
"","","","","","","","","","","","html-keyboard-response","98","2.0.0","373926","5c796f4b4855980016a15557","1","12","null","","","","","","","","","<p style='font-size: 30px;'><strong>Okay</strong></p>","null","neutral_feedback","0","test","46","","","","","","","",""
"","","","","","","","","","","","html-button-response","99","2.0.0","378136","5c796f4b4855980016a15557","1","12","4209","","","","","","","","","<img src= ""rock_img/I_Andesite_07.jpg"" style=""width:8cm; height:5.93cm;""><p>What type of rock is this?</p>","2","class_response","0","test","47","Diorite","Andesite","07","false","3","1","",""
"","","","","","","","","","","","html-keyboard-response","100","2.0.0","378639","5c796f4b4855980016a15557","1","12","null","","","","","","","","","<p style='font-size: 30px;'><strong>Okay</strong></p>","null","neutral_feedback","0","test","47","","","","","","","",""
"","","","","","","","","","","","html-button-response","101","2.0.0","403034","5c796f4b4855980016a15557","1","12","24394","","","","","","","","","<img src= ""rock_img/I_Obsidian_05.jpg"" style=""width:8cm; height:6.33cm;""><p>What type of rock is this?</p>","4","class_response","0","test","48","Obsidian","Obsidian","05","true","5","5","",""
"","","","","","","","","","","","html-keyboard-response","102","2.0.0","403544","5c796f4b4855980016a15557","1","12","null","","","","","","","","","<p style='font-size: 30px;'><strong>Okay</strong></p>","null","neutral_feedback","0","test","48","","","","","","","",""
"","","","","","","","","","","","instructions","103","2.0.0","424151","5c796f4b4855980016a15557","1","12","20582","","","","","","","","[{""page_index"":0,""viewing_time"":10684},{""page_index"":1,""viewing_time"":4801},{""page_index"":2,""viewing_time"":5098}]","","","","","","","","","","","","","",""
"","","","","","","","","","","","html-button-response","104","2.0.0","427428","5c796f4b4855980016a15557","1","12","3276","","","","","","","","","","0","start_train","","","","","","","","","","",""
"","","","","","","","","","","","html-button-response","105","2.0.0","435503","5c796f4b4855980016a15557","1","12","8074","","","","","","","","","<img src= ""rock_img/I_Diorite_14.jpg"" style=""width:8cm; height:5.71cm;""><p>What type of rock is this?</p>","2","class_response","1","train","1","Diorite","Diorite","14","true","3","3","",""
"","","","","","","","","","","","html-button-response","106","2.0.0","437075","5c796f4b4855980016a15557","1","12","1570","","","","","","","","","<img src= rock_img/I_Diorite_14.jpg style=""width:8cm; height:5.71cm;""><p style='font-size: 30px; color: green;'><strong>Correct!</strong></p><p style='font-size: 30px;'><strong>This rock is diorite</strong></p>","0","corr_feedback","1","train","1","","","","","","","",""
"","","","","","","","","","","","html-button-response","107","2.0.0","438335","5c796f4b4855980016a15557","1","12","1259","","","","","","","","","<img src= ""rock_img/I_Pumice_10.jpg"" style=""width:8cm; height:7.609999999999999cm;""><p>What type of rock is this?</p>","7","class_response","1","train","2","Pumice","Pumice","10","true","8","8","",""
"","","","","","","","","","","","html-button-response","108","2.0.0","439487","5c796f4b4855980016a15557","1","12","1150","","","","","","","","","<img src= rock_img/I_Pumice_10.jpg style=""width:8cm; height:7.609999999999999cm;""><p style='font-size: 30px; color: green;'><strong>Correct!</strong></p><p style='font-size: 30px;'><strong>This rock is pumice</strong></p>","0","corr_feedback","1","train","2","","","","","","","",""
"","","","","","","","","","","","html-button-response","109","2.0.0","448594","5c796f4b4855980016a15557","1","12","9106","","","","","","","","","<img src= ""rock_img/I_Peridotite_04.jpg"" style=""width:8cm; height:6.680000000000001cm;""><p>What type of rock is this?</p>","5","class_response","1","train","3","Pegmatite","Peridotite","04","false","6","7","",""
"","","","","","","","","","","","html-button-response","110","2.0.0","450862","5c796f4b4855980016a15557","1","12","2266","","","","","","","","","<img src= rock_img/I_Peridotite_04.jpg style=""width:8cm; height:6.680000000000001cm;""><p style='font-size: 30px; color: red;'><strong>Incorrect!</strong></p><p style='font-size: 30px;'><strong>This rock is peridotite</strong></p>","0","corr_feedback","1","train","3","","","","","","","",""
"","","","","","","","","","","","html-button-response","111","2.0.0","452578","5c796f4b4855980016a15557","1","12","1715","","","","","","","","","<img src= ""rock_img/I_Obsidian_08.jpg"" style=""width:8cm; height:7.39cm;""><p>What type of rock is this?</p>","4","class_response","1","train","4","Obsidian","Obsidian","08","true","5","5","",""
"","","","","","","","","","","","html-button-response","112","2.0.0","453897","5c796f4b4855980016a15557","1","12","1318","","","","","","","","","<img src= rock_img/I_Obsidian_08.jpg style=""width:8cm; height:7.39cm;""><p style='font-size: 30px; color: green;'><strong>Correct!</strong></p><p style='font-size: 30px;'><strong>This rock is obsidian</strong></p>","0","corr_feedback","1","train","4","","","","","","","",""
"","","","","","","","","","","","html-button-response","113","2.0.0","458626","5c796f4b4855980016a15557","1","12","4728","","","","","","","","","<img src= ""rock_img/I_Peridotite_05.jpg"" style=""width:8cm; height:7.1499999999999995cm;""><p>What type of rock is this?</p>","1","class_response","1","train","5","Basalt","Peridotite","05","false","2","7","",""
"","","","","","","","","","","","html-button-response","114","2.0.0","463844","5c796f4b4855980016a15557","1","12","5216","","","","","","","","","<img src= rock_img/I_Peridotite_05.jpg style=""width:8cm; height:7.1499999999999995cm;""><p style='font-size: 30px; color: red;'><strong>Incorrect!</strong></p><p style='font-size: 30px;'><strong>This rock is peridotite</strong></p>","0","corr_feedback","1","train","5","","","","","","","",""
"","","","","","","","","","","","html-button-response","115","2.0.0","468728","5c796f4b4855980016a15557","1","12","4882","","","","","","","","","<img src= ""rock_img/I_Peridotite_15.jpg"" style=""width:8cm; height:6cm;""><p>What type of rock is this?</p>","6","class_response","1","train","6","Peridotite","Peridotite","15","true","7","7","",""
"","","","","","","","","","","","html-button-response","116","2.0.0","470036","5c796f4b4855980016a15557","1","12","1306","","","","","","","","","<img src= rock_img/I_Peridotite_15.jpg style=""width:8cm; height:6cm;""><p style='font-size: 30px; color: green;'><strong>Correct!</strong></p><p style='font-size: 30px;'><strong>This rock is peridotite</strong></p>","0","corr_feedback","1","train","6","","","","","","","",""
"","","","","","","","","","","","html-button-response","117","2.0.0","484063","5c796f4b4855980016a15557","1","12","14026","","","","","","","","","<img src= ""rock_img/I_Andesite_04.jpg"" style=""width:8cm; height:5.96cm;""><p>What type of rock is this?</p>","0","class_response","1","train","7","Andesite","Andesite","04","true","1","1","",""
"","","","","","","","","","","","html-button-response","118","2.0.0","485814","5c796f4b4855980016a15557","1","12","1749","","","","","","","","","<img src= rock_img/I_Andesite_04.jpg style=""width:8cm; height:5.96cm;""><p style='font-size: 30px; color: green;'><strong>Correct!</strong></p><p style='font-size: 30px;'><strong>This rock is andesite</strong></p>","0","corr_feedback","1","train","7","","","","","","","",""
"","","","","","","","","","","","html-button-response","119","2.0.0","490721","5c796f4b4855980016a15557","1","12","4906","","","","","","","","","<img src= ""rock_img/I_Diorite_12.jpg"" style=""width:8cm; height:4.88cm;""><p>What type of rock is this?</p>","2","class_response","1","train","8","Diorite","Diorite","12","true","3","3","",""
"","","","","","","","","","","","html-button-response","120","2.0.0","491682","5c796f4b4855980016a15557","1","12","960","","","","","","","","","<img src= rock_img/I_Diorite_12.jpg style=""width:8cm; height:4.88cm;""><p style='font-size: 30px; color: green;'><strong>Correct!</strong></p><p style='font-size: 30px;'><strong>This rock is diorite</strong></p>","0","corr_feedback","1","train","8","","","","","","","",""
"","","","","","","","","","","","html-button-response","121","2.0.0","493483","5c796f4b4855980016a15557","1","12","1800","","","","","","","","","<img src= ""rock_img/I_Gabbro_12.jpg"" style=""width:8cm; height:7.800000000000001cm;""><p>What type of rock is this?</p>","1","class_response","1","train","9","Basalt","Gabbro","12","false","2","4","",""
"","","","","","","","","","","","html-button-response","122","2.0.0","501221","5c796f4b4855980016a15557","1","12","7736","","","","","","","","","<img src= rock_img/I_Gabbro_12.jpg style=""width:8cm; height:7.800000000000001cm;""><p style='font-size: 30px; color: red;'><strong>Incorrect!</strong></p><p style='font-size: 30px;'><strong>This rock is gabbro</strong></p>","0","corr_feedback","1","train","9","","","","","","","",""
"","","","","","","","","","","","html-button-response","123","2.0.0","504605","5c796f4b4855980016a15557","1","12","3383","","","","","","","","","<img src= ""rock_img/I_Peridotite_08.jpg"" style=""width:8cm; height:6.7cm;""><p>What type of rock is this?</p>","3","class_response","1","train","10","Gabbro","Peridotite","08","false","4","7","",""
"","","","","","","","","","","","html-button-response","124","2.0.0","506092","5c796f4b4855980016a15557","1","12","1485","","","","","","","","","<img src= rock_img/I_Peridotite_08.jpg style=""width:8cm; height:6.7cm;""><p style='font-size: 30px; color: red;'><strong>Incorrect!</strong></p><p style='font-size: 30px;'><strong>This rock is peridotite</strong></p>","0","corr_feedback","1","train","10","","","","","","","",""
"","","","","","","","","","","","html-button-response","125","2.0.0","512800","5c796f4b4855980016a15557","1","12","6707","","","","","","","","","<img src= ""rock_img/I_Diorite_09.jpg"" style=""width:8cm; height:5.27cm;""><p>What type of rock is this?</p>","2","class_response","1","train","11","Diorite","Diorite","09","true","3","3","",""
"","","","","","","","","","","","html-button-response","126","2.0.0","514108","5c796f4b4855980016a15557","1","12","1306","","","","","","","","","<img src= rock_img/I_Diorite_09.jpg style=""width:8cm; height:5.27cm;""><p style='font-size: 30px; color: green;'><strong>Correct!</strong></p><p style='font-size: 30px;'><strong>This rock is diorite</strong></p>","0","corr_feedback","1","train","11","","","","","","","",""
"","","","","","","","","","","","html-button-response","127","2.0.0","518644","5c796f4b4855980016a15557","1","12","4535","","","","","","","","","<img src= ""rock_img/I_Pegmatite_13.jpg"" style=""width:8cm; height:4.95cm;""><p>What type of rock is this?</p>","5","class_response","1","train","12","Pegmatite","Pegmatite","13","true","6","6","",""
"","","","","","","","","","","","html-button-response","128","2.0.0","519807","5c796f4b4855980016a15557","1","12","1161","","","","","","","","","<img src= rock_img/I_Pegmatite_13.jpg style=""width:8cm; height:4.95cm;""><p style='font-size: 30px; color: green;'><strong>Correct!</strong></p><p style='font-size: 30px;'><strong>This rock is pegmatite</strong></p>","0","corr_feedback","1","train","12","","","","","","","",""
"","","","","","","","","","","","html-button-response","129","2.0.0","526384","5c796f4b4855980016a15557","1","12","6575","","","","","","","","","<img src= ""rock_img/I_Andesite_06.jpg"" style=""width:8cm; height:6.840000000000001cm;""><p>What type of rock is this?</p>","0","class_response","1","train","13","Andesite","Andesite","06","true","1","1","",""
"","","","","","","","","","","","html-button-response","130","2.0.0","527932","5c796f4b4855980016a15557","1","12","1547","","","","","","","","","<img src= rock_img/I_Andesite_06.jpg style=""width:8cm; height:6.840000000000001cm;""><p style='font-size: 30px; color: green;'><strong>Correct!</strong></p><p style='font-size: 30px;'><strong>This rock is andesite</strong></p>","0","corr_feedback","1","train","13","","","","","","","",""
"","","","","","","","","","","","html-button-response","131","2.0.0","532346","5c796f4b4855980016a15557","1","12","4413","","","","","","","","","<img src= ""rock_img/I_Diorite_02.jpg"" style=""width:8cm; height:6.27cm;""><p>What type of rock is this?</p>","2","class_response","1","train","14","Diorite","Diorite","02","true","3","3","",""
"","","","","","","","","","","","html-button-response","132","2.0.0","533438","5c796f4b4855980016a15557","1","12","1090","","","","","","","","","<img src= rock_img/I_Diorite_02.jpg style=""width:8cm; height:6.27cm;""><p style='font-size: 30px; color: green;'><strong>Correct!</strong></p><p style='font-size: 30px;'><strong>This rock is diorite</strong></p>","0","corr_feedback","1","train","14","","","","","","","",""
"","","","","","","","","","","","html-button-response","133","2.0.0","537518","5c796f4b4855980016a15557","1","12","4079","","","","","","","","","<img src= ""rock_img/I_Diorite_13.jpg"" style=""width:8cm; height:6.29cm;""><p>What type of rock is this?</p>","0","class_response","1","train","15","Andesite","Diorite","13","false","1","3","",""
"","","","","","","","","","","","html-button-response","134","2.0.0","539737","5c796f4b4855980016a15557","1","12","2217","","","","","","","","","<img src= rock_img/I_Diorite_13.jpg style=""width:8cm; height:6.29cm;""><p style='font-size: 30px; color: red;'><strong>Incorrect!</strong></p><p style='font-size: 30px;'><strong>This rock is diorite</strong></p>","0","corr_feedback","1","train","15","","","","","","","",""
"","","","","","","","","","","","html-button-response","135","2.0.0","541250","5c796f4b4855980016a15557","1","12","1512","","","","","","","","","<img src= ""rock_img/I_Obsidian_02.jpg"" style=""width:8cm; height:7.51cm;""><p>What type of rock is this?</p>","4","class_response","1","train","16","Obsidian","Obsidian","02","true","5","5","",""
"","","","","","","","","","","","html-button-response","136","2.0.0","543447","5c796f4b4855980016a15557","1","12","2196","","","","","","","","","<img src= rock_img/I_Obsidian_02.jpg style=""width:8cm; height:7.51cm;""><p style='font-size: 30px; color: green;'><strong>Correct!</strong></p><p style='font-size: 30px;'><strong>This rock is obsidian</strong></p>","0","corr_feedback","1","train","16","","","","","","","",""
"","","","","","","","","","","","html-button-response","137","2.0.0","556044","5c796f4b4855980016a15557","1","12","12596","","","","","","","","","<img src= ""rock_img/I_Pumice_13.jpg"" style=""width:8cm; height:8.200000000000001cm;""><p>What type of rock is this?</p>","3","class_response","1","train","17","Gabbro","Pumice","13","false","4","8","",""
"","","","","","","","","","","","html-button-response","138","2.0.0","558119","5c796f4b4855980016a15557","1","12","2073","","","","","","","","","<img src= rock_img/I_Pumice_13.jpg style=""width:8cm; height:8.200000000000001cm;""><p style='font-size: 30px; color: red;'><strong>Incorrect!</strong></p><p style='font-size: 30px;'><strong>This rock is pumice</strong></p>","0","corr_feedback","1","train","17","","","","","","","",""
"","","","","","","","","","","","html-button-response","139","2.0.0","566123","5c796f4b4855980016a15557","1","12","8003","","","","","","","","","<img src= ""rock_img/I_Gabbro_08.jpg"" style=""width:8cm; height:5.15cm;""><p>What type of rock is this?</p>","3","class_response","1","train","18","Gabbro","Gabbro","08","true","4","4","",""
"","","","","","","","","","","","html-button-response","140","2.0.0","567227","5c796f4b4855980016a15557","1","12","1103","","","","","","","","","<img src= rock_img/I_Gabbro_08.jpg style=""width:8cm; height:5.15cm;""><p style='font-size: 30px; color: green;'><strong>Correct!</strong></p><p style='font-size: 30px;'><strong>This rock is gabbro</strong></p>","0","corr_feedback","1","train","18","","","","","","","",""
"","","","","","","","","","","","html-button-response","141","2.0.0","568595","5c796f4b4855980016a15557","1","12","1367","","","","","","","","","<img src= ""rock_img/I_Pumice_15.jpg"" style=""width:8cm; height:7.86cm;""><p>What type of rock is this?</p>","7","class_response","1","train","19","Pumice","Pumice","15","true","8","8","",""
"","","","","","","","","","","","html-button-response","142","2.0.0","569603","5c796f4b4855980016a15557","1","12","1007","","","","","","","","","<img src= rock_img/I_Pumice_15.jpg style=""width:8cm; height:7.86cm;""><p style='font-size: 30px; color: green;'><strong>Correct!</strong></p><p style='font-size: 30px;'><strong>This rock is pumice</strong></p>","0","corr_feedback","1","train","19","","","","","","","",""
"","","","","","","","","","","","html-button-response","143","2.0.0","571371","5c796f4b4855980016a15557","1","12","1767","","","","","","","","","<img src= ""rock_img/I_Obsidian_10.jpg"" style=""width:8cm; height:6.260000000000001cm;""><p>What type of rock is this?</p>","4","class_response","1","train","20","Obsidian","Obsidian","10","true","5","5","",""
"","","","","","","","","","","","html-button-response","144","2.0.0","572375","5c796f4b4855980016a15557","1","12","1002","","","","","","","","","<img src= rock_img/I_Obsidian_10.jpg style=""width:8cm; height:6.260000000000001cm;""><p style='font-size: 30px; color: green;'><strong>Correct!</strong></p><p style='font-size: 30px;'><strong>This rock is obsidian</strong></p>","0","corr_feedback","1","train","20","","","","","","","",""
"","","","","","","","","","","","html-button-response","145","2.0.0","576230","5c796f4b4855980016a15557","1","12","3853","","","","","","","","","<img src= ""rock_img/I_Pegmatite_05.jpg"" style=""width:8cm; height:7.300000000000001cm;""><p>What type of rock is this?</p>","5","class_response","1","train","21","Pegmatite","Pegmatite","05","true","6","6","",""
"","","","","","","","","","","","html-button-response","146","2.0.0","577185","5c796f4b4855980016a15557","1","12","955","","","","","","","","","<img src= rock_img/I_Pegmatite_05.jpg style=""width:8cm; height:7.300000000000001cm;""><p style='font-size: 30px; color: green;'><strong>Correct!</strong></p><p style='font-size: 30px;'><strong>This rock is pegmatite</strong></p>","0","corr_feedback","1","train","21","","","","","","","",""
"","","","","","","","","","","","html-button-response","147","2.0.0","586197","5c796f4b4855980016a15557","1","12","9010","","","","","","","","","<img src= ""rock_img/I_Gabbro_16.jpg"" style=""width:8cm; height:6.44cm;""><p>What type of rock is this?</p>","3","class_response","1","train","22","Gabbro","Gabbro","16","true","4","4","",""
"","","","","","","","","","","","html-button-response","148","2.0.0","587480","5c796f4b4855980016a15557","1","12","1282","","","","","","","","","<img src= rock_img/I_Gabbro_16.jpg style=""width:8cm; height:6.44cm;""><p style='font-size: 30px; color: green;'><strong>Correct!</strong></p><p style='font-size: 30px;'><strong>This rock is gabbro</strong></p>","0","corr_feedback","1","train","22","","","","","","","",""
"","","","","","","","","","","","html-button-response","149","2.0.0","589065","5c796f4b4855980016a15557","1","12","1583","","","","","","","","","<img src= ""rock_img/I_Basalt_12.jpg"" style=""width:8cm; height:6.010000000000001cm;""><p>What type of rock is this?</p>","7","class_response","1","train","23","Pumice","Basalt","12","false","8","2","",""
"","","","","","","","","","","","html-button-response","150","2.0.0","590708","5c796f4b4855980016a15557","1","12","1643","","","","","","","","","<img src= rock_img/I_Basalt_12.jpg style=""width:8cm; height:6.010000000000001cm;""><p style='font-size: 30px; color: red;'><strong>Incorrect!</strong></p><p style='font-size: 30px;'><strong>This rock is basalt</strong></p>","0","corr_feedback","1","train","23","","","","","","","",""
"","","","","","","","","","","","html-button-response","151","2.0.0","596192","5c796f4b4855980016a15557","1","12","5483","","","","","","","","","<img src= ""rock_img/I_Andesite_10.jpg"" style=""width:8cm; height:4.16cm;""><p>What type of rock is this?</p>","1","class_response","1","train","24","Basalt","Andesite","10","false","2","1","",""
"","","","","","","","","","","","html-button-response","152","2.0.0","601076","5c796f4b4855980016a15557","1","12","4882","","","","","","","","","<img src= rock_img/I_Andesite_10.jpg style=""width:8cm; height:4.16cm;""><p style='font-size: 30px; color: red;'><strong>Incorrect!</strong></p><p style='font-size: 30px;'><strong>This rock is andesite</strong></p>","0","corr_feedback","1","train","24","","","","","","","",""
"","","","","","","","","","","","html-button-response","153","2.0.0","618750","5c796f4b4855980016a15557","1","12","17672","","","","","","","","","<img src= ""rock_img/I_Basalt_11.jpg"" style=""width:8cm; height:5.359999999999999cm;""><p>What type of rock is this?</p>","0","class_response","1","train","25","Andesite","Basalt","11","false","1","2","",""
"","","","","","","","","","","","html-button-response","154","2.0.0","620288","5c796f4b4855980016a15557","1","12","1537","","","","","","","","","<img src= rock_img/I_Basalt_11.jpg style=""width:8cm; height:5.359999999999999cm;""><p style='font-size: 30px; color: red;'><strong>Incorrect!</strong></p><p style='font-size: 30px;'><strong>This rock is basalt</strong></p>","0","corr_feedback","1","train","25","","","","","","","",""
"","","","","","","","","","","","html-button-response","155","2.0.0","624573","5c796f4b4855980016a15557","1","12","4284","","","","","","","","","<img src= ""rock_img/I_Pegmatite_07.jpg"" style=""width:8cm; height:6.7cm;""><p>What type of rock is this?</p>","5","class_response","1","train","26","Pegmatite","Pegmatite","07","true","6","6","",""
"","","","","","","","","","","","html-button-response","156","2.0.0","625734","5c796f4b4855980016a15557","1","12","1160","","","","","","","","","<img src= rock_img/I_Pegmatite_07.jpg style=""width:8cm; height:6.7cm;""><p style='font-size: 30px; color: green;'><strong>Correct!</strong></p><p style='font-size: 30px;'><strong>This rock is pegmatite</strong></p>","0","corr_feedback","1","train","26","","","","","","","",""
"","","","","","","","","","","","html-button-response","157","2.0.0","629886","5c796f4b4855980016a15557","1","12","4150","","","","","","","","","<img src= ""rock_img/I_Peridotite_13.jpg"" style=""width:8cm; height:7.58cm;""><p>What type of rock is this?</p>","6","class_response","1","train","27","Peridotite","Peridotite","13","true","7","7","",""
"","","","","","","","","","","","html-button-response","158","2.0.0","630847","5c796f4b4855980016a15557","1","12","960","","","","","","","","","<img src= rock_img/I_Peridotite_13.jpg style=""width:8cm; height:7.58cm;""><p style='font-size: 30px; color: green;'><strong>Correct!</strong></p><p style='font-size: 30px;'><strong>This rock is peridotite</strong></p>","0","corr_feedback","1","train","27","","","","","","","",""
"","","","","","","","","","","","html-button-response","159","2.0.0","639904","5c796f4b4855980016a15557","1","12","9055","","","","","","","","","<img src= ""rock_img/I_Andesite_02.jpg"" style=""width:8cm; height:8.5cm;""><p>What type of rock is this?</p>","0","class_response","1","train","28","Andesite","Andesite","02","true","1","1","",""
"","","","","","","","","","","","html-button-response","160","2.0.0","642270","5c796f4b4855980016a15557","1","12","2366","","","","","","","","","<img src= rock_img/I_Andesite_02.jpg style=""width:8cm; height:8.5cm;""><p style='font-size: 30px; color: green;'><strong>Correct!</strong></p><p style='font-size: 30px;'><strong>This rock is andesite</strong></p>","0","corr_feedback","1","train","28","","","","","","","",""
"","","","","","","","","","","","html-button-response","161","2.0.0","651124","5c796f4b4855980016a15557","1","12","8852","","","","","","","","","<img src= ""rock_img/I_Basalt_06.jpg"" style=""width:8cm; height:7.06cm;""><p>What type of rock is this?</p>","1","class_response","1","train","29","Basalt","Basalt","06","true","2","2","",""
"","","","","","","","","","","","html-button-response","162","2.0.0","652120","5c796f4b4855980016a15557","1","12","994","","","","","","","","","<img src= rock_img/I_Basalt_06.jpg style=""width:8cm; height:7.06cm;""><p style='font-size: 30px; color: green;'><strong>Correct!</strong></p><p style='font-size: 30px;'><strong>This rock is basalt</strong></p>","0","corr_feedback","1","train","29","","","","","","","",""
"","","","","","","","","","","","html-button-response","163","2.0.0","658419","5c796f4b4855980016a15557","1","12","6298","","","","","","","","","<img src= ""rock_img/I_Basalt_04.jpg"" style=""width:8cm; height:7.53cm;""><p>What type of rock is this?</p>","3","class_response","1","train","30","Gabbro","Basalt","04","false","4","2","",""
"","","","","","","","","","","","html-button-response","164","2.0.0","659922","5c796f4b4855980016a15557","1","12","1503","","","","","","","","","<img src= rock_img/I_Basalt_04.jpg style=""width:8cm; height:7.53cm;""><p style='font-size: 30px; color: red;'><strong>Incorrect!</strong></p><p style='font-size: 30px;'><strong>This rock is basalt</strong></p>","0","corr_feedback","1","train","30","","","","","","","",""
"","","","","","","","","","","","html-button-response","165","2.0.0","666566","5c796f4b4855980016a15557","1","12","6642","","","","","","","","","<img src= ""rock_img/I_Obsidian_11.jpg"" style=""width:8cm; height:6.05cm;""><p>What type of rock is this?</p>","4","class_response","1","train","31","Obsidian","Obsidian","11","true","5","5","",""
"","","","","","","","","","","","html-button-response","166","2.0.0","667946","5c796f4b4855980016a15557","1","12","1379","","","","","","","","","<img src= rock_img/I_Obsidian_11.jpg style=""width:8cm; height:6.05cm;""><p style='font-size: 30px; color: green;'><strong>Correct!</strong></p><p style='font-size: 30px;'><strong>This rock is obsidian</strong></p>","0","corr_feedback","1","train","31","","","","","","","",""
"","","","","","","","","","","","html-button-response","167","2.0.0","672027","5c796f4b4855980016a15557","1","12","4080","","","","","","","","","<img src= ""rock_img/I_Pegmatite_11.jpg"" style=""width:8cm; height:8.14cm;""><p>What type of rock is this?</p>","5","class_response","1","train","32","Pegmatite","Pegmatite","11","true","6","6","",""
"","","","","","","","","","","","html-button-response","168","2.0.0","673262","5c796f4b4855980016a15557","1","12","1234","","","","","","","","","<img src= rock_img/I_Pegmatite_11.jpg style=""width:8cm; height:8.14cm;""><p style='font-size: 30px; color: green;'><strong>Correct!</strong></p><p style='font-size: 30px;'><strong>This rock is pegmatite</strong></p>","0","corr_feedback","1","train","32","","","","","","","",""
"","","","","","","","","","","","html-button-response","169","2.0.0","681493","5c796f4b4855980016a15557","1","12","8229","","","","","","","","","<img src= ""rock_img/I_Basalt_16.jpg"" style=""width:8cm; height:7.659999999999999cm;""><p>What type of rock is this?</p>","3","class_response","1","train","33","Gabbro","Basalt","16","false","4","2","",""
"","","","","","","","","","","","html-button-response","170","2.0.0","682957","5c796f4b4855980016a15557","1","12","1463","","","","","","","","","<img src= rock_img/I_Basalt_16.jpg style=""width:8cm; height:7.659999999999999cm;""><p style='font-size: 30px; color: red;'><strong>Incorrect!</strong></p><p style='font-size: 30px;'><strong>This rock is basalt</strong></p>","0","corr_feedback","1","train","33","","","","","","","",""
"","","","","","","","","","","","html-button-response","171","2.0.0","695700","5c796f4b4855980016a15557","1","12","12742","","","","","","","","","<img src= ""rock_img/I_Basalt_10.jpg"" style=""width:8cm; height:5.85cm;""><p>What type of rock is this?</p>","3","class_response","1","train","34","Gabbro","Basalt","10","false","4","2","",""
"","","","","","","","","","","","html-button-response","172","2.0.0","697091","5c796f4b4855980016a15557","1","12","1391","","","","","","","","","<img src= rock_img/I_Basalt_10.jpg style=""width:8cm; height:5.85cm;""><p style='font-size: 30px; color: red;'><strong>Incorrect!</strong></p><p style='font-size: 30px;'><strong>This rock is basalt</strong></p>","0","corr_feedback","1","train","34","","","","","","","",""
"","","","","","","","","","","","html-button-response","173","2.0.0","698519","5c796f4b4855980016a15557","1","12","1426","","","","","","","","","<img src= ""rock_img/I_Pumice_06.jpg"" style=""width:8cm; height:6.9399999999999995cm;""><p>What type of rock is this?</p>","7","class_response","1","train","35","Pumice","Pumice","06","true","8","8","",""
"","","","","","","","","","","","html-button-response","174","2.0.0","700775","5c796f4b4855980016a15557","1","12","2254","","","","","","","","","<img src= rock_img/I_Pumice_06.jpg style=""width:8cm; height:6.9399999999999995cm;""><p style='font-size: 30px; color: green;'><strong>Correct!</strong></p><p style='font-size: 30px;'><strong>This rock is pumice</strong></p>","0","corr_feedback","1","train","35","","","","","","","",""
"","","","","","","","","","","","html-button-response","175","2.0.0","704110","5c796f4b4855980016a15557","1","12","3333","","","","","","","","","<img src= ""rock_img/I_Pegmatite_06.jpg"" style=""width:8cm; height:5.17cm;""><p>What type of rock is this?</p>","5","class_response","1","train","36","Pegmatite","Pegmatite","06","true","6","6","",""
"","","","","","","","","","","","html-button-response","176","2.0.0","705047","5c796f4b4855980016a15557","1","12","936","","","","","","","","","<img src= rock_img/I_Pegmatite_06.jpg style=""width:8cm; height:5.17cm;""><p style='font-size: 30px; color: green;'><strong>Correct!</strong></p><p style='font-size: 30px;'><strong>This rock is pegmatite</strong></p>","0","corr_feedback","1","train","36","","","","","","","",""
"","","","","","","","","","","","html-button-response","177","2.0.0","715449","5c796f4b4855980016a15557","1","12","10400","","","","","","","","","<img src= ""rock_img/I_Diorite_06.jpg"" style=""width:8cm; height:6.03cm;""><p>What type of rock is this?</p>","2","class_response","1","train","37","Diorite","Diorite","06","true","3","3","",""
"","","","","","","","","","","","html-button-response","178","2.0.0","716648","5c796f4b4855980016a15557","1","12","1198","","","","","","","","","<img src= rock_img/I_Diorite_06.jpg style=""width:8cm; height:6.03cm;""><p style='font-size: 30px; color: green;'><strong>Correct!</strong></p><p style='font-size: 30px;'><strong>This rock is diorite</strong></p>","0","corr_feedback","1","train","37","","","","","","","",""
"","","","","","","","","","","","html-button-response","179","2.0.0","718177","5c796f4b4855980016a15557","1","12","1527","","","","","","","","","<img src= ""rock_img/I_Pumice_16.jpg"" style=""width:8cm; height:6.79cm;""><p>What type of rock is this?</p>","7","class_response","1","train","38","Pumice","Pumice","16","true","8","8","",""
"","","","","","","","","","","","html-button-response","180","2.0.0","719349","5c796f4b4855980016a15557","1","12","1172","","","","","","","","","<img src= rock_img/I_Pumice_16.jpg style=""width:8cm; height:6.79cm;""><p style='font-size: 30px; color: green;'><strong>Correct!</strong></p><p style='font-size: 30px;'><strong>This rock is pumice</strong></p>","0","corr_feedback","1","train","38","","","","","","","",""
"","","","","","","","","","","","html-button-response","181","2.0.0","720865","5c796f4b4855980016a15557","1","12","1514","","","","","","","","","<img src= ""rock_img/I_Pumice_02.jpg"" style=""width:8cm; height:7.3999999999999995cm;""><p>What type of rock is this?</p>","7","class_response","1","train","39","Pumice","Pumice","02","true","8","8","",""
"","","","","","","","","","","","html-button-response","182","2.0.0","722001","5c796f4b4855980016a15557","1","12","1135","","","","","","","","","<img src= rock_img/I_Pumice_02.jpg style=""width:8cm; height:7.3999999999999995cm;""><p style='font-size: 30px; color: green;'><strong>Correct!</strong></p><p style='font-size: 30px;'><strong>This rock is pumice</strong></p>","0","corr_feedback","1","train","39","","","","","","","",""
"","","","","","","","","","","","html-button-response","183","2.0.0","733988","5c796f4b4855980016a15557","1","12","11986","","","","","","","","","<img src= ""rock_img/I_Gabbro_09.jpg"" style=""width:8cm; height:7.279999999999999cm;""><p>What type of rock is this?</p>","3","class_response","1","train","40","Gabbro","Gabbro","09","true","4","4","",""
"","","","","","","","","","","","html-button-response","184","2.0.0","735176","5c796f4b4855980016a15557","1","12","1186","","","","","","","","","<img src= rock_img/I_Gabbro_09.jpg style=""width:8cm; height:7.279999999999999cm;""><p style='font-size: 30px; color: green;'><strong>Correct!</strong></p><p style='font-size: 30px;'><strong>This rock is gabbro</strong></p>","0","corr_feedback","1","train","40","","","","","","","",""
"","","","","","","","","","","","html-button-response","185","2.0.0","747703","5c796f4b4855980016a15557","1","12","12525","","","","","","","","","<img src= ""rock_img/I_Andesite_14.jpg"" style=""width:8cm; height:5.449999999999999cm;""><p>What type of rock is this?</p>","2","class_response","1","train","41","Diorite","Andesite","14","false","3","1","",""
"","","","","","","","","","","","html-button-response","186","2.0.0","751266","5c796f4b4855980016a15557","1","12","3562","","","","","","","","","<img src= rock_img/I_Andesite_14.jpg style=""width:8cm; height:5.449999999999999cm;""><p style='font-size: 30px; color: red;'><strong>Incorrect!</strong></p><p style='font-size: 30px;'><strong>This rock is andesite</strong></p>","0","corr_feedback","1","train","41","","","","","","","",""
"","","","","","","","","","","","html-button-response","187","2.0.0","762845","5c796f4b4855980016a15557","1","12","11578","","","","","","","","","<img src= ""rock_img/I_Gabbro_14.jpg"" style=""width:8cm; height:8.48cm;""><p>What type of rock is this?</p>","3","class_response","1","train","42","Gabbro","Gabbro","14","true","4","4","",""
"","","","","","","","","","","","html-button-response","188","2.0.0","763985","5c796f4b4855980016a15557","1","12","1139","","","","","","","","","<img src= rock_img/I_Gabbro_14.jpg style=""width:8cm; height:8.48cm;""><p style='font-size: 30px; color: green;'><strong>Correct!</strong></p><p style='font-size: 30px;'><strong>This rock is gabbro</strong></p>","0","corr_feedback","1","train","42","","","","","","","",""
"","","","","","","","","","","","html-button-response","189","2.0.0","770873","5c796f4b4855980016a15557","1","12","6886","","","","","","","","","<img src= ""rock_img/I_Peridotite_10.jpg"" style=""width:8cm; height:5.390000000000001cm;""><p>What type of rock is this?</p>","6","class_response","1","train","43","Peridotite","Peridotite","10","true","7","7","",""
"","","","","","","","","","","","html-button-response","190","2.0.0","771916","5c796f4b4855980016a15557","1","12","1042","","","","","","","","","<img src= rock_img/I_Peridotite_10.jpg style=""width:8cm; height:5.390000000000001cm;""><p style='font-size: 30px; color: green;'><strong>Correct!</strong></p><p style='font-size: 30px;'><strong>This rock is peridotite</strong></p>","0","corr_feedback","1","train","43","","","","","","","",""
"","","","","","","","","","","","html-button-response","191","2.0.0","775851","5c796f4b4855980016a15557","1","12","3934","","","","","","","","","<img src= ""rock_img/I_Pegmatite_09.jpg"" style=""width:8cm; height:4.03cm;""><p>What type of rock is this?</p>","5","class_response","1","train","44","Pegmatite","Pegmatite","09","true","6","6","",""
"","","","","","","","","","","","html-button-response","192","2.0.0","776896","5c796f4b4855980016a15557","1","12","1044","","","","","","","","","<img src= rock_img/I_Pegmatite_09.jpg style=""width:8cm; height:4.03cm;""><p style='font-size: 30px; color: green;'><strong>Correct!</strong></p><p style='font-size: 30px;'><strong>This rock is pegmatite</strong></p>","0","corr_feedback","1","train","44","","","","","","","",""
"","","","","","","","","","","","html-button-response","193","2.0.0","778361","5c796f4b4855980016a15557","1","12","1464","","","","","","","","","<img src= ""rock_img/I_Obsidian_12.jpg"" style=""width:8cm; height:6.53cm;""><p>What type of rock is this?</p>","4","class_response","1","train","45","Obsidian","Obsidian","12","true","5","5","",""
"","","","","","","","","","","","html-button-response","194","2.0.0","779259","5c796f4b4855980016a15557","1","12","897","","","","","","","","","<img src= rock_img/I_Obsidian_12.jpg style=""width:8cm; height:6.53cm;""><p style='font-size: 30px; color: green;'><strong>Correct!</strong></p><p style='font-size: 30px;'><strong>This rock is obsidian</strong></p>","0","corr_feedback","1","train","45","","","","","","","",""
"","","","","","","","","","","","html-button-response","195","2.0.0","782079","5c796f4b4855980016a15557","1","12","2818","","","","","","","","","<img src= ""rock_img/I_Andesite_09.jpg"" style=""width:8cm; height:6cm;""><p>What type of rock is this?</p>","1","class_response","1","train","46","Basalt","Andesite","09","false","2","1","",""
"","","","","","","","","","","","html-button-response","196","2.0.0","783460","5c796f4b4855980016a15557","1","12","1380","","","","","","","","","<img src= rock_img/I_Andesite_09.jpg style=""width:8cm; height:6cm;""><p style='font-size: 30px; color: red;'><strong>Incorrect!</strong></p><p style='font-size: 30px;'><strong>This rock is andesite</strong></p>","0","corr_feedback","1","train","46","","","","","","","",""
"","","","","","","","","","","","html-button-response","197","2.0.0","785236","5c796f4b4855980016a15557","1","12","1774","","","","","","","","","<img src= ""rock_img/I_Obsidian_09.jpg"" style=""width:8cm; height:5cm;""><p>What type of rock is this?</p>","4","class_response","1","train","47","Obsidian","Obsidian","09","true","5","5","",""
"","","","","","","","","","","","html-button-response","198","2.0.0","786399","5c796f4b4855980016a15557","1","12","1163","","","","","","","","","<img src= rock_img/I_Obsidian_09.jpg style=""width:8cm; height:5cm;""><p style='font-size: 30px; color: green;'><strong>Correct!</strong></p><p style='font-size: 30px;'><strong>This rock is obsidian</strong></p>","0","corr_feedback","1","train","47","","","","","","","",""
"","","","","","","","","","","","html-button-response","199","2.0.0","809006","5c796f4b4855980016a15557","1","12","22605","","","","","","","","","<img src= ""rock_img/I_Gabbro_13.jpg"" style=""width:8cm; height:5.08cm;""><p>What type of rock is this?</p>","5","class_response","1","train","48","Pegmatite","Gabbro","13","false","6","4","",""
"","","","","","","","","","","","html-button-response","200","2.0.0","810193","5c796f4b4855980016a15557","1","12","1186","","","","","","","","","<img src= rock_img/I_Gabbro_13.jpg style=""width:8cm; height:5.08cm;""><p style='font-size: 30px; color: red;'><strong>Incorrect!</strong></p><p style='font-size: 30px;'><strong>This rock is gabbro</strong></p>","0","corr_feedback","1","train","48","","","","","","","",""
"","","","","","","","","","","","instructions","203","2.0.0","824843","5c796f4b4855980016a15557","1","12","14649","","","","","","","","[{""page_index"":0,""viewing_time"":10366},{""page_index"":1,""viewing_time"":4283}]","","","","","","","","","","","","","",""
"","","","","","","","","","","","html-button-response","204","2.0.0","826643","5c796f4b4855980016a15557","1","12","1799","","","","","","","","","","0","start_test","","","","","","","","","","",""
"","","","","","","","","","","","html-button-response","205","2.0.0","828323","5c796f4b4855980016a15557","1","12","1677","","","","","","","","","<img src= ""rock_img/I_Obsidian_07.jpg"" style=""width:8cm; height:4.76cm;""><p>What type of rock is this?</p>","4","class_response","1","test","1","Obsidian","Obsidian","07","true","5","5","",""
"","","","","","","","","","","","html-keyboard-response","206","2.0.0","828829","5c796f4b4855980016a15557","1","12","null","","","","","","","","","<p style='font-size: 30px;'><strong>Okay</strong></p>","null","neutral_feedback","1","test","1","","","","","","","",""
"","","","","","","","","","","","html-button-response","207","2.0.0","831286","5c796f4b4855980016a15557","1","12","2456","","","","","","","","","<img src= ""rock_img/I_Gabbro_10.jpg"" style=""width:8cm; height:5.680000000000001cm;""><p>What type of rock is this?</p>","7","class_response","1","test","2","Pumice","Gabbro","10","false","8","4","",""
"","","","","","","","","","","","html-keyboard-response","208","2.0.0","831791","5c796f4b4855980016a15557","1","12","null","","","","","","","","","<p style='font-size: 30px;'><strong>Okay</strong></p>","null","neutral_feedback","1","test","2","","","","","","","",""
"","","","","","","","","","","","html-button-response","209","2.0.0","841258","5c796f4b4855980016a15557","1","12","9466","","","","","","","","","<img src= ""rock_img/I_Diorite_16.jpg"" style=""width:8cm; height:6.74cm;""><p>What type of rock is this?</p>","2","class_response","1","test","3","Diorite","Diorite","16","true","3","3","",""
"","","","","","","","","","","","html-keyboard-response","210","2.0.0","841767","5c796f4b4855980016a15557","1","12","null","","","","","","","","","<p style='font-size: 30px;'><strong>Okay</strong></p>","null","neutral_feedback","1","test","3","","","","","","","",""
"","","","","","","","","","","","html-button-response","211","2.0.0","850234","5c796f4b4855980016a15557","1","12","8465","","","","","","","","","<img src= ""rock_img/I_Andesite_11.jpg"" style=""width:8cm; height:4.92cm;""><p>What type of rock is this?</p>","3","class_response","1","test","4","Gabbro","Andesite","11","false","4","1","",""
"","","","","","","","","","","","html-keyboard-response","212","2.0.0","850748","5c796f4b4855980016a15557","1","12","null","","","","","","","","","<p style='font-size: 30px;'><strong>Okay</strong></p>","null","neutral_feedback","1","test","4","","","","","","","",""
"","","","","","","","","","","","html-button-response","213","2.0.0","852106","5c796f4b4855980016a15557","1","12","1357","","","","","","","","","<img src= ""rock_img/I_Obsidian_16.jpg"" style=""width:8cm; height:9.3cm;""><p>What type of rock is this?</p>","4","class_response","1","test","5","Obsidian","Obsidian","16","true","5","5","",""
"","","","","","","","","","","","html-keyboard-response","214","2.0.0","852607","5c796f4b4855980016a15557","1","12","null","","","","","","","","","<p style='font-size: 30px;'><strong>Okay</strong></p>","null","neutral_feedback","1","test","5","","","","","","","",""
"","","","","","","","","","","","html-button-response","215","2.0.0","854997","5c796f4b4855980016a15557","1","12","2389","","","","","","","","","<img src= ""rock_img/I_Basalt_08.jpg"" style=""width:8cm; height:10.44cm;""><p>What type of rock is this?</p>","1","class_response","1","test","6","Basalt","Basalt","08","true","2","2","",""
"","","","","","","","","","","","html-keyboard-response","216","2.0.0","855504","5c796f4b4855980016a15557","1","12","null","","","","","","","","","<p style='font-size: 30px;'><strong>Okay</strong></p>","null","neutral_feedback","1","test","6","","","","","","","",""
"","","","","","","","","","","","html-button-response","217","2.0.0","856919","5c796f4b4855980016a15557","1","12","1414","","","","","","","","","<img src= ""rock_img/I_Basalt_01.jpg"" style=""width:8cm; height:7.880000000000001cm;""><p>What type of rock is this?</p>","1","class_response","1","test","7","Basalt","Basalt","01","true","2","2","",""
"","","","","","","","","","","","html-keyboard-response","218","2.0.0","857436","5c796f4b4855980016a15557","1","12","null","","","","","","","","","<p style='font-size: 30px;'><strong>Okay</strong></p>","null","neutral_feedback","1","test","7","","","","","","","",""
"","","","","","","","","","","","html-button-response","219","2.0.0","861632","5c796f4b4855980016a15557","1","12","4195","","","","","","","","","<img src= ""rock_img/I_Pegmatite_12.jpg"" style=""width:8cm; height:5.7cm;""><p>What type of rock is this?</p>","5","class_response","1","test","8","Pegmatite","Pegmatite","12","true","6","6","",""
"","","","","","","","","","","","html-keyboard-response","220","2.0.0","862134","5c796f4b4855980016a15557","1","12","null","","","","","","","","","<p style='font-size: 30px;'><strong>Okay</strong></p>","null","neutral_feedback","1","test","8","","","","","","","",""
"","","","","","","","","","","","html-button-response","221","2.0.0","874843","5c796f4b4855980016a15557","1","12","12708","","","","","","","","","<img src= ""rock_img/I_Diorite_15.jpg"" style=""width:8cm; height:5.54cm;""><p>What type of rock is this?</p>","0","class_response","1","test","9","Andesite","Diorite","15","false","1","3","",""
"","","","","","","","","","","","html-keyboard-response","222","2.0.0","875345","5c796f4b4855980016a15557","1","12","null","","","","","","","","","<p style='font-size: 30px;'><strong>Okay</strong></p>","null","neutral_feedback","1","test","9","","","","","","","",""
"","","","","","","","","","","","html-button-response","223","2.0.0","877111","5c796f4b4855980016a15557","1","12","1765","","","","","","","","","<img src= ""rock_img/I_Obsidian_04.jpg"" style=""width:8cm; height:6.930000000000001cm;""><p>What type of rock is this?</p>","4","class_response","1","test","10","Obsidian","Obsidian","04","true","5","5","",""
"","","","","","","","","","","","html-keyboard-response","224","2.0.0","877624","5c796f4b4855980016a15557","1","12","null","","","","","","","","","<p style='font-size: 30px;'><strong>Okay</strong></p>","null","neutral_feedback","1","test","10","","","","","","","",""
"","","","","","","","","","","","html-button-response","225","2.0.0","880471","5c796f4b4855980016a15557","1","12","2846","","","","","","","","","<img src= ""rock_img/I_Gabbro_15.jpg"" style=""width:8cm; height:6.29cm;""><p>What type of rock is this?</p>","0","class_response","1","test","11","Andesite","Gabbro","15","false","1","4","",""
"","","","","","","","","","","","html-keyboard-response","226","2.0.0","880976","5c796f4b4855980016a15557","1","12","null","","","","","","","","","<p style='font-size: 30px;'><strong>Okay</strong></p>","null","neutral_feedback","1","test","11","","","","","","","",""
"","","","","","","","","","","","html-button-response","227","2.0.0","894545","5c796f4b4855980016a15557","1","12","13567","","","","","","","","","<img src= ""rock_img/I_Basalt_14.jpg"" style=""width:8cm; height:5.82cm;""><p>What type of rock is this?</p>","3","class_response","1","test","12","Gabbro","Basalt","14","false","4","2","",""
"","","","","","","","","","","","html-keyboard-response","228","2.0.0","895048","5c796f4b4855980016a15557","1","12","null","","","","","","","","","<p style='font-size: 30px;'><strong>Okay</strong></p>","null","neutral_feedback","1","test","12","","","","","","","",""
"","","","","","","","","","","","html-button-response","229","2.0.0","897546","5c796f4b4855980016a15557","1","12","2496","","","","","","","","","<img src= ""rock_img/I_Diorite_11.jpg"" style=""width:8cm; height:7.11cm;""><p>What type of rock is this?</p>","2","class_response","1","test","13","Diorite","Diorite","11","true","3","3","",""
"","","","","","","","","","","","html-keyboard-response","230","2.0.0","898052","5c796f4b4855980016a15557","1","12","null","","","","","","","","","<p style='font-size: 30px;'><strong>Okay</strong></p>","null","neutral_feedback","1","test","13","","","","","","","",""
"","","","","","","","","","","","html-button-response","231","2.0.0","901889","5c796f4b4855980016a15557","1","12","3837","","","","","","","","","<img src= ""rock_img/I_Pegmatite_16.jpg"" style=""width:8cm; height:5.8cm;""><p>What type of rock is this?</p>","5","class_response","1","test","14","Pegmatite","Pegmatite","16","true","6","6","",""
"","","","","","","","","","","","html-keyboard-response","232","2.0.0","902393","5c796f4b4855980016a15557","1","12","null","","","","","","","","","<p style='font-size: 30px;'><strong>Okay</strong></p>","null","neutral_feedback","1","test","14","","","","","","","",""
"","","","","","","","","","","","html-button-response","233","2.0.0","903785","5c796f4b4855980016a15557","1","12","1390","","","","","","","","","<img src= ""rock_img/I_Obsidian_05.jpg"" style=""width:8cm; height:6.33cm;""><p>What type of rock is this?</p>","5","class_response","1","test","15","Pegmatite","Obsidian","05","false","6","5","",""
"","","","","","","","","","","","html-keyboard-response","234","2.0.0","904294","5c796f4b4855980016a15557","1","12","null","","","","","","","","","<p style='font-size: 30px;'><strong>Okay</strong></p>","null","neutral_feedback","1","test","15","","","","","","","",""
"","","","","","","","","","","","html-button-response","235","2.0.0","905679","5c796f4b4855980016a15557","1","12","1384","","","","","","","","","<img src= ""rock_img/I_Pumice_09.jpg"" style=""width:8cm; height:6.44cm;""><p>What type of rock is this?</p>","7","class_response","1","test","16","Pumice","Pumice","09","true","8","8","",""
"","","","","","","","","","","","html-keyboard-response","236","2.0.0","906182","5c796f4b4855980016a15557","1","12","null","","","","","","","","","<p style='font-size: 30px;'><strong>Okay</strong></p>","null","neutral_feedback","1","test","16","","","","","","","",""
"","","","","","","","","","","","html-button-response","237","2.0.0","907719","5c796f4b4855980016a15557","1","12","1537","","","","","","","","","<img src= ""rock_img/I_Pegmatite_08.jpg"" style=""width:8cm; height:7.68cm;""><p>What type of rock is this?</p>","5","class_response","1","test","17","Pegmatite","Pegmatite","08","true","6","6","",""
"","","","","","","","","","","","html-keyboard-response","238","2.0.0","908221","5c796f4b4855980016a15557","1","12","null","","","","","","","","","<p style='font-size: 30px;'><strong>Okay</strong></p>","null","neutral_feedback","1","test","17","","","","","","","",""
"","","","","","","","","","","","html-button-response","239","2.0.0","909628","5c796f4b4855980016a15557","1","12","1406","","","","","","","","","<img src= ""rock_img/I_Pegmatite_15.jpg"" style=""width:8cm; height:6cm;""><p>What type of rock is this?</p>","5","class_response","1","test","18","Pegmatite","Pegmatite","15","true","6","6","",""
"","","","","","","","","","","","html-keyboard-response","240","2.0.0","910131","5c796f4b4855980016a15557","1","12","null","","","","","","","","","<p style='font-size: 30px;'><strong>Okay</strong></p>","null","neutral_feedback","1","test","18","","","","","","","",""
"","","","","","","","","","","","html-button-response","241","2.0.0","911355","5c796f4b4855980016a15557","1","12","1224","","","","","","","","","<img src= ""rock_img/I_Pegmatite_03.jpg"" style=""width:8cm; height:5.239999999999999cm;""><p>What type of rock is this?</p>","5","class_response","1","test","19","Pegmatite","Pegmatite","03","true","6","6","",""
"","","","","","","","","","","","html-keyboard-response","242","2.0.0","911871","5c796f4b4855980016a15557","1","12","null","","","","","","","","","<p style='font-size: 30px;'><strong>Okay</strong></p>","null","neutral_feedback","1","test","19","","","","","","","",""
"","","","","","","","","","","","html-button-response","243","2.0.0","914823","5c796f4b4855980016a15557","1","12","2950","","","","","","","","","<img src= ""rock_img/I_Andesite_16.jpg"" style=""width:8cm; height:6.010000000000001cm;""><p>What type of rock is this?</p>","1","class_response","1","test","20","Basalt","Andesite","16","false","2","1","",""
"","","","","","","","","","","","html-keyboard-response","244","2.0.0","915324","5c796f4b4855980016a15557","1","12","null","","","","","","","","","<p style='font-size: 30px;'><strong>Okay</strong></p>","null","neutral_feedback","1","test","20","","","","","","","",""
"","","","","","","","","","","","html-button-response","245","2.0.0","922911","5c796f4b4855980016a15557","1","12","7585","","","","","","","","","<img src= ""rock_img/I_Diorite_10.jpg"" style=""width:8cm; height:5.949999999999999cm;""><p>What type of rock is this?</p>","6","class_response","1","test","21","Peridotite","Diorite","10","false","7","3","",""
"","","","","","","","","","","","html-keyboard-response","246","2.0.0","923415","5c796f4b4855980016a15557","1","12","null","","","","","","","","","<p style='font-size: 30px;'><strong>Okay</strong></p>","null","neutral_feedback","1","test","21","","","","","","","",""
"","","","","","","","","","","","html-button-response","247","2.0.0","942145","5c796f4b4855980016a15557","1","12","18729","","","","","","","","","<img src= ""rock_img/I_Gabbro_01.jpg"" style=""width:8cm; height:5.21cm;""><p>What type of rock is this?</p>","0","class_response","1","test","22","Andesite","Gabbro","01","false","1","4","",""
"","","","","","","","","","","","html-keyboard-response","248","2.0.0","942649","5c796f4b4855980016a15557","1","12","null","","","","","","","","","<p style='font-size: 30px;'><strong>Okay</strong></p>","null","neutral_feedback","1","test","22","","","","","","","",""
"","","","","","","","","","","","html-button-response","249","2.0.0","951094","5c796f4b4855980016a15557","1","12","8444","","","","","","","","","<img src= ""rock_img/I_Andesite_07.jpg"" style=""width:8cm; height:5.93cm;""><p>What type of rock is this?</p>","2","class_response","1","test","23","Diorite","Andesite","07","false","3","1","",""
"","","","","","","","","","","","html-keyboard-response","250","2.0.0","951610","5c796f4b4855980016a15557","1","12","null","","","","","","","","","<p style='font-size: 30px;'><strong>Okay</strong></p>","null","neutral_feedback","1","test","23","","","","","","","",""
"","","","","","","","","","","","html-button-response","251","2.0.0","958632","5c796f4b4855980016a15557","1","12","7021","","","","","","","","","<img src= ""rock_img/I_Peridotite_14.jpg"" style=""width:8cm; height:5.3cm;""><p>What type of rock is this?</p>","6","class_response","1","test","24","Peridotite","Peridotite","14","true","7","7","",""
"","","","","","","","","","","","html-keyboard-response","252","2.0.0","959140","5c796f4b4855980016a15557","1","12","null","","","","","","","","","<p style='font-size: 30px;'><strong>Okay</strong></p>","null","neutral_feedback","1","test","24","","","","","","","",""
"","","","","","","","","","","","html-button-response","253","2.0.0","960923","5c796f4b4855980016a15557","1","12","1781","","","","","","","","","<img src= ""rock_img/I_Peridotite_12.jpg"" style=""width:8cm; height:4.54cm;""><p>What type of rock is this?</p>","5","class_response","1","test","25","Pegmatite","Peridotite","12","false","6","7","",""
"","","","","","","","","","","","html-keyboard-response","254","2.0.0","961424","5c796f4b4855980016a15557","1","12","null","","","","","","","","","<p style='font-size: 30px;'><strong>Okay</strong></p>","null","neutral_feedback","1","test","25","","","","","","","",""
"","","","","","","","","","","","html-button-response","255","2.0.0","963095","5c796f4b4855980016a15557","1","12","1669","","","","","","","","","<img src= ""rock_img/I_Peridotite_06.jpg"" style=""width:8cm; height:7.53cm;""><p>What type of rock is this?</p>","5","class_response","1","test","26","Pegmatite","Peridotite","06","false","6","7","",""
"","","","","","","","","","","","html-keyboard-response","256","2.0.0","963605","5c796f4b4855980016a15557","1","12","null","","","","","","","","","<p style='font-size: 30px;'><strong>Okay</strong></p>","null","neutral_feedback","1","test","26","","","","","","","",""
"","","","","","","","","","","","html-button-response","257","2.0.0","965087","5c796f4b4855980016a15557","1","12","1480","","","","","","","","","<img src= ""rock_img/I_Pumice_03.jpg"" style=""width:8cm; height:6.64cm;""><p>What type of rock is this?</p>","7","class_response","1","test","27","Pumice","Pumice","03","true","8","8","",""
"","","","","","","","","","","","html-keyboard-response","258","2.0.0","965589","5c796f4b4855980016a15557","1","12","null","","","","","","","","","<p style='font-size: 30px;'><strong>Okay</strong></p>","null","neutral_feedback","1","test","27","","","","","","","",""
"","","","","","","","","","","","html-button-response","259","2.0.0","971531","5c796f4b4855980016a15557","1","12","5940","","","","","","","","","<img src= ""rock_img/I_Diorite_07.jpg"" style=""width:8cm; height:5.239999999999999cm;""><p>What type of rock is this?</p>","2","class_response","1","test","28","Diorite","Diorite","07","true","3","3","",""
"","","","","","","","","","","","html-keyboard-response","260","2.0.0","972038","5c796f4b4855980016a15557","1","12","null","","","","","","","","","<p style='font-size: 30px;'><strong>Okay</strong></p>","null","neutral_feedback","1","test","28","","","","","","","",""
"","","","","","","","","","","","html-button-response","261","2.0.0","976582","5c796f4b4855980016a15557","1","12","4543","","","","","","","","","<img src= ""rock_img/I_Andesite_01.jpg"" style=""width:8cm; height:5.87cm;""><p>What type of rock is this?</p>","0","class_response","1","test","29","Andesite","Andesite","01","true","1","1","",""
"","","","","","","","","","","","html-keyboard-response","262","2.0.0","977086","5c796f4b4855980016a15557","1","12","null","","","","","","","","","<p style='font-size: 30px;'><strong>Okay</strong></p>","null","neutral_feedback","1","test","29","","","","","","","",""
"","","","","","","","","","","","html-button-response","263","2.0.0","978658","5c796f4b4855980016a15557","1","12","1571","","","","","","","","","<img src= ""rock_img/I_Gabbro_03.jpg"" style=""width:8cm; height:8.52cm;""><p>What type of rock is this?</p>","0","class_response","1","test","30","Andesite","Gabbro","03","false","1","4","",""
"","","","","","","","","","","","html-keyboard-response","264","2.0.0","979160","5c796f4b4855980016a15557","1","12","null","","","","","","","","","<p style='font-size: 30px;'><strong>Okay</strong></p>","null","neutral_feedback","1","test","30","","","","","","","",""
"","","","","","","","","","","","html-button-response","265","2.0.0","981130","5c796f4b4855980016a15557","1","12","1969","","","","","","","","","<img src= ""rock_img/I_Gabbro_11.jpg"" style=""width:8cm; height:6.2cm;""><p>What type of rock is this?</p>","1","class_response","1","test","31","Basalt","Gabbro","11","false","2","4","",""
"","","","","","","","","","","","html-keyboard-response","266","2.0.0","981634","5c796f4b4855980016a15557","1","12","null","","","","","","","","","<p style='font-size: 30px;'><strong>Okay</strong></p>","null","neutral_feedback","1","test","31","","","","","","","",""
"","","","","","","","","","","","html-button-response","267","2.0.0","982366","5c796f4b4855980016a15557","1","12","731","","","","","","","","","<img src= ""rock_img/I_Basalt_02.jpg"" style=""width:8cm; height:6.45cm;""><p>What type of rock is this?</p>","1","class_response","1","test","32","Basalt","Basalt","02","true","2","2","",""
"","","","","","","","","","","","html-keyboard-response","268","2.0.0","982883","5c796f4b4855980016a15557","1","12","null","","","","","","","","","<p style='font-size: 30px;'><strong>Okay</strong></p>","null","neutral_feedback","1","test","32","","","","","","","",""
"","","","","","","","","","","","html-button-response","269","2.0.0","986722","5c796f4b4855980016a15557","1","12","3838","","","","","","","","","<img src= ""rock_img/I_Diorite_08.jpg"" style=""width:8cm; height:6.37cm;""><p>What type of rock is this?</p>","2","class_response","1","test","33","Diorite","Diorite","08","true","3","3","",""
"","","","","","","","","","","","html-keyboard-response","270","2.0.0","987231","5c796f4b4855980016a15557","1","12","null","","","","","","","","","<p style='font-size: 30px;'><strong>Okay</strong></p>","null","neutral_feedback","1","test","33","","","","","","","",""
"","","","","","","","","","","","html-button-response","271","2.0.0","988509","5c796f4b4855980016a15557","1","12","1277","","","","","","","","","<img src= ""rock_img/I_Pumice_14.jpg"" style=""width:8cm; height:6.39cm;""><p>What type of rock is this?</p>","7","class_response","1","test","34","Pumice","Pumice","14","true","8","8","",""
"","","","","","","","","","","","html-keyboard-response","272","2.0.0","989010","5c796f4b4855980016a15557","1","12","null","","","","","","","","","<p style='font-size: 30px;'><strong>Okay</strong></p>","null","neutral_feedback","1","test","34","","","","","","","",""
"","","","","","","","","","","","html-button-response","273","2.0.0","990585","5c796f4b4855980016a15557","1","12","1573","","","","","","","","","<img src= ""rock_img/I_Obsidian_06.jpg"" style=""width:8cm; height:6.8cm;""><p>What type of rock is this?</p>","4","class_response","1","test","35","Obsidian","Obsidian","06","true","5","5","",""
"","","","","","","","","","","","html-keyboard-response","274","2.0.0","991096","5c796f4b4855980016a15557","1","12","null","","","","","","","","","<p style='font-size: 30px;'><strong>Okay</strong></p>","null","neutral_feedback","1","test","35","","","","","","","",""
"","","","","","","","","","","","html-button-response","275","2.0.0","995840","5c796f4b4855980016a15557","1","12","4743","","","","","","","","","<img src= ""rock_img/I_Peridotite_02.jpg"" style=""width:8cm; height:5.859999999999999cm;""><p>What type of rock is this?</p>","6","class_response","1","test","36","Peridotite","Peridotite","02","true","7","7","",""
"","","","","","","","","","","","html-keyboard-response","276","2.0.0","996344","5c796f4b4855980016a15557","1","12","null","","","","","","","","","<p style='font-size: 30px;'><strong>Okay</strong></p>","null","neutral_feedback","1","test","36","","","","","","","",""
"","","","","","","","","","","","html-button-response","277","2.0.0","1002020","5c796f4b4855980016a15557","1","12","5675","","","","","","","","","<img src= ""rock_img/I_Pegmatite_10.jpg"" style=""width:8cm; height:4.16cm;""><p>What type of rock is this?</p>","5","class_response","1","test","37","Pegmatite","Pegmatite","10","true","6","6","",""
"","","","","","","","","","","","html-keyboard-response","278","2.0.0","1002526","5c796f4b4855980016a15557","1","12","null","","","","","","","","","<p style='font-size: 30px;'><strong>Okay</strong></p>","null","neutral_feedback","1","test","37","","","","","","","",""
"","","","","","","","","","","","html-button-response","279","2.0.0","1004324","5c796f4b4855980016a15557","1","12","1796","","","","","","","","","<img src= ""rock_img/I_Pumice_08.jpg"" style=""width:8cm; height:6.67cm;""><p>What type of rock is this?</p>","7","class_response","1","test","38","Pumice","Pumice","08","true","8","8","",""
"","","","","","","","","","","","html-keyboard-response","280","2.0.0","1004826","5c796f4b4855980016a15557","1","12","null","","","","","","","","","<p style='font-size: 30px;'><strong>Okay</strong></p>","null","neutral_feedback","1","test","38","","","","","","","",""
"","","","","","","","","","","","html-button-response","281","2.0.0","1008319","5c796f4b4855980016a15557","1","12","3492","","","","","","","","","<img src= ""rock_img/I_Andesite_03.jpg"" style=""width:8cm; height:5.73cm;""><p>What type of rock is this?</p>","1","class_response","1","test","39","Basalt","Andesite","03","false","2","1","",""
"","","","","","","","","","","","html-keyboard-response","282","2.0.0","1008824","5c796f4b4855980016a15557","1","12","null","","","","","","","","","<p style='font-size: 30px;'><strong>Okay</strong></p>","null","neutral_feedback","1","test","39","","","","","","","",""
"","","","","","","","","","","","html-button-response","283","2.0.0","1009639","5c796f4b4855980016a15557","1","12","814","","","","","","","","","<img src= ""rock_img/I_Basalt_09.jpg"" style=""width:8cm; height:6.2cm;""><p>What type of rock is this?</p>","1","class_response","1","test","40","Basalt","Basalt","09","true","2","2","",""
"","","","","","","","","","","","html-keyboard-response","284","2.0.0","1010140","5c796f4b4855980016a15557","1","12","null","","","","","","","","","<p style='font-size: 30px;'><strong>Okay</strong></p>","null","neutral_feedback","1","test","40","","","","","","","",""
"","","","","","","","","","","","html-button-response","285","2.0.0","1011475","5c796f4b4855980016a15557","1","12","1333","","","","","","","","","<img src= ""rock_img/I_Pumice_04.jpg"" style=""width:8cm; height:6.819999999999999cm;""><p>What type of rock is this?</p>","7","class_response","1","test","41","Pumice","Pumice","04","true","8","8","",""
"","","","","","","","","","","","html-keyboard-response","286","2.0.0","1011989","5c796f4b4855980016a15557","1","12","null","","","","","","","","","<p style='font-size: 30px;'><strong>Okay</strong></p>","null","neutral_feedback","1","test","41","","","","","","","",""
"","","","","","","","","","","","html-button-response","287","2.0.0","1013754","5c796f4b4855980016a15557","1","12","1764","","","","","","","","","<img src= ""rock_img/I_Basalt_05.jpg"" style=""width:8cm; height:8.18cm;""><p>What type of rock is this?</p>","1","class_response","1","test","42","Basalt","Basalt","05","true","2","2","",""
"","","","","","","","","","","","html-keyboard-response","288","2.0.0","1014256","5c796f4b4855980016a15557","1","12","null","","","","","","","","","<p style='font-size: 30px;'><strong>Okay</strong></p>","null","neutral_feedback","1","test","42","","","","","","","",""
"","","","","","","","","","","","html-button-response","289","2.0.0","1015795","5c796f4b4855980016a15557","1","12","1538","","","","","","","","","<img src= ""rock_img/I_Obsidian_14.jpg"" style=""width:8cm; height:7.64cm;""><p>What type of rock is this?</p>","4","class_response","1","test","43","Obsidian","Obsidian","14","true","5","5","",""
"","","","","","","","","","","","html-keyboard-response","290","2.0.0","1016305","5c796f4b4855980016a15557","1","12","null","","","","","","","","","<p style='font-size: 30px;'><strong>Okay</strong></p>","null","neutral_feedback","1","test","43","","","","","","","",""
"","","","","","","","","","","","html-button-response","291","2.0.0","1023355","5c796f4b4855980016a15557","1","12","7049","","","","","","","","","<img src= ""rock_img/I_Gabbro_05.jpg"" style=""width:8cm; height:6cm;""><p>What type of rock is this?</p>","3","class_response","1","test","44","Gabbro","Gabbro","05","true","4","4","",""
"","","","","","","","","","","","html-keyboard-response","292","2.0.0","1023868","5c796f4b4855980016a15557","1","12","null","","","","","","","","","<p style='font-size: 30px;'><strong>Okay</strong></p>","null","neutral_feedback","1","test","44","","","","","","","",""
"","","","","","","","","","","","html-button-response","293","2.0.0","1026138","5c796f4b4855980016a15557","1","12","2269","","","","","","","","","<img src= ""rock_img/I_Andesite_05.jpg"" style=""width:8cm; height:4.12cm;""><p>What type of rock is this?</p>","1","class_response","1","test","45","Basalt","Andesite","05","false","2","1","",""
"","","","","","","","","","","","html-keyboard-response","294","2.0.0","1026650","5c796f4b4855980016a15557","1","12","null","","","","","","","","","<p style='font-size: 30px;'><strong>Okay</strong></p>","null","neutral_feedback","1","test","45","","","","","","","",""
"","","","","","","","","","","","html-button-response","295","2.0.0","1028177","5c796f4b4855980016a15557","1","12","1526","","","","","","","","","<img src= ""rock_img/I_Pumice_05.jpg"" style=""width:8cm; height:7.25cm;""><p>What type of rock is this?</p>","7","class_response","1","test","46","Pumice","Pumice","05","true","8","8","",""
"","","","","","","","","","","","html-keyboard-response","296","2.0.0","1028683","5c796f4b4855980016a15557","1","12","null","","","","","","","","","<p style='font-size: 30px;'><strong>Okay</strong></p>","null","neutral_feedback","1","test","46","","","","","","","",""
"","","","","","","","","","","","html-button-response","297","2.0.0","1036901","5c796f4b4855980016a15557","1","12","8217","","","","","","","","","<img src= ""rock_img/I_Peridotite_16.jpg"" style=""width:8cm; height:6.989999999999999cm;""><p>What type of rock is this?</p>","6","class_response","1","test","47","Peridotite","Peridotite","16","true","7","7","",""
"","","","","","","","","","","","html-keyboard-response","298","2.0.0","1037413","5c796f4b4855980016a15557","1","12","null","","","","","","","","","<p style='font-size: 30px;'><strong>Okay</strong></p>","null","neutral_feedback","1","test","47","","","","","","","",""
"","","","","","","","","","","","html-button-response","299","2.0.0","1042600","5c796f4b4855980016a15557","1","12","5186","","","","","","","","","<img src= ""rock_img/I_Peridotite_07.jpg"" style=""width:8cm; height:4.83cm;""><p>What type of rock is this?</p>","3","class_response","1","test","48","Gabbro","Peridotite","07","false","4","7","",""
"","","","","","","","","","","","html-keyboard-response","300","2.0.0","1043111","5c796f4b4855980016a15557","1","12","null","","","","","","","","","<p style='font-size: 30px;'><strong>Okay</strong></p>","null","neutral_feedback","1","test","48","","","","","","","",""
"","","","","","","","","","","","html-button-response","301","2.0.0","1074552","5c796f4b4855980016a15557","1","12","","","","","","","","","","","","cycle_feedback","","","","","","","","","","18946.599999999627","12489.599999999627"
"","","","","","","","","","","","html-button-response","303","2.0.0","1083469","5c796f4b4855980016a15557","1","12","8916","","","","","","","","","","0","start_train","","","","","","","","","","",""
"","","","","","","","","","","","html-button-response","304","2.0.0","1088316","5c796f4b4855980016a15557","1","12","4845","","","","","","","","","<img src= ""rock_img/I_Basalt_11.jpg"" style=""width:8cm; height:5.359999999999999cm;""><p>What type of rock is this?</p>","7","class_response","2","train","1","Pumice","Basalt","11","false","8","2","",""
