"width","height","webaudio","browser","browser_version","mobile","os","fullscreen","vsync_rate","webcam","microphone","trial_type","trial_index","plugin_version","time_elapsed","subjID","condition","stimID","rt","url","success","value","timeout","failed_images","failed_audio","failed_video","view_history","stimulus","response","trialType","cycle","phase","trial","resp","cat","token","corr","resp_num","cat_num","rt_ref","rt_paired","ref_cat_num","paired_cat_num","ref_cat","paired_cat","text_Andesite","text_Diorite","time_obs","time_resp","text_Gabbro"
"1280","541","true","chrome","130.0.0","false","Windows 10","true","60.53","true","true","browser-check","0","2.0.0","1010","6556e5fa9feed5dca96b6dcd","4","6","","","","","","","","","","","","","","","","","","","","","","","","","","","","","","","",""
"","","","","","","","","","","","external-html","1","2.0.0","10806","6556e5fa9feed5dca96b6dcd","4","6","9729","consent_form.html","","","","","","","","","","","","","","","","","","","","","","","","","","","","","",""
"","","","","","","","","","","","fullscreen","2","2.0.0","15809","6556e5fa9feed5dca96b6dcd","4","6","3997","","true","","","","","","","","","","","","","","","","","","","","","","","","","","","","",""
"","","","","","","","","","","","call-function","3","2.0.0","15811","6556e5fa9feed5dca96b6dcd","4","6","","","","{}","","","","","","","","","","","","","","","","","","","","","","","","","","","",""
"","","","","","","","","","","","preload","4","2.0.0","24450","6556e5fa9feed5dca96b6dcd","4","6","","","true","","false","[]","[]","[]","","","","","","","","","","","","","","","","","","","","","","","",""
"","","","","","","","","","","","instructions","5","2.0.0","54977","6556e5fa9feed5dca96b6dcd","4","6","30526","","","","","","","","[{""page_index"":0,""viewing_time"":3111},{""page_index"":1,""viewing_time"":11968},{""page_index"":2,""viewing_time"":15447}]","","","","","","","","","","","","","","","","","","","","","","",""
"","","","","","","","","","","","html-button-response","6","2.0.0","56809","6556e5fa9feed5dca96b6dcd","4","6","1830","","","","","","","","","","0","start_test","","","","","","","","","","","","","","","","","","","",""
"","","","","","","","","","","","html-button-response","7","2.0.0","61079","6556e5fa9feed5dca96b6dcd","4","6","4267","","","","","","","","","<img src= ""rock_img/I_Basalt_16.jpg"" style=""width:8cm; height:7.659999999999999cm;""><p>What type of rock is this?</p>","0","class_response","0","test","1","Andesite","Basalt","16","false","1","2","","","","","","","","","","",""
"","","","","","","","","","","","html-keyboard-response","8","2.0.0","61585","6556e5fa9feed5dca96b6dcd","4","6","null","","","","","","","","","<p style='font-size: 30px;'><strong>Okay</strong></p>","null","neutral_feedback","0","test","1","","","","","","","","","","","","","","","","",""
"","","","","","","","","","","","html-button-response","9","2.0.0","68548","6556e5fa9feed5dca96b6dcd","4","6","6961","","","","","","","","","<img src= ""rock_img/I_Gabbro_03.jpg"" style=""width:8cm; height:8.52cm;""><p>What type of rock is this?</p>","6","class_response","0","test","2","Peridotite","Gabbro","03","false","7","4","","","","","","","","","","",""
"","","","","","","","","","","","html-keyboard-response","10","2.0.0","69052","6556e5fa9feed5dca96b6dcd","4","6","null","","","","","","","","","<p style='font-size: 30px;'><strong>Okay</strong></p>","null","neutral_feedback","0","test","2","","","","","","","","","","","","","","","","",""
"","","","","","","","","","","","html-button-response","11","2.0.0","74214","6556e5fa9feed5dca96b6dcd","4","6","5159","","","","","","","","","<img src= ""rock_img/I_Gabbro_09.jpg"" style=""width:8cm; height:7.279999999999999cm;""><p>What type of rock is this?</p>","7","class_response","0","test","3","Pumice","Gabbro","09","false","8","4","","","","","","","","","","",""
"","","","","","","","","","","","html-keyboard-response","12","2.0.0","74721","6556e5fa9feed5dca96b6dcd","4","6","null","","","","","","","","","<p style='font-size: 30px;'><strong>Okay</strong></p>","null","neutral_feedback","0","test","3","","","","","","","","","","","","","","","","",""
"","","","","","","","","","","","html-button-response","13","2.0.0","82908","6556e5fa9feed5dca96b6dcd","4","6","8185","","","","","","","","","<img src= ""rock_img/I_Gabbro_15.jpg"" style=""width:8cm; height:6.29cm;""><p>What type of rock is this?</p>","6","class_response","0","test","4","Peridotite","Gabbro","15","false","7","4","","","","","","","","","","",""
"","","","","","","","","","","","html-keyboard-response","14","2.0.0","83411","6556e5fa9feed5dca96b6dcd","4","6","null","","","","","","","","","<p style='font-size: 30px;'><strong>Okay</strong></p>","null","neutral_feedback","0","test","4","","","","","","","","","","","","","","","","",""
"","","","","","","","","","","","html-button-response","15","2.0.0","91362","6556e5fa9feed5dca96b6dcd","4","6","7949","","","","","","","","","<img src= ""rock_img/I_Diorite_14.jpg"" style=""width:8cm; height:5.71cm;""><p>What type of rock is this?</p>","0","class_response","0","test","5","Andesite","Diorite","14","false","1","3","","","","","","","","","","",""
"","","","","","","","","","","","html-keyboard-response","16","2.0.0","91867","6556e5fa9feed5dca96b6dcd","4","6","null","","","","","","","","","<p style='font-size: 30px;'><strong>Okay</strong></p>","null","neutral_feedback","0","test","5","","","","","","","","","","","","","","","","",""
"","","","","","","","","","","","html-button-response","17","2.0.0","99954","6556e5fa9feed5dca96b6dcd","4","6","8086","","","","","","","","","<img src= ""rock_img/I_Pegmatite_07.jpg"" style=""width:8cm; height:6.7cm;""><p>What type of rock is this?</p>","3","class_response","0","test","6","Gabbro","Pegmatite","07","false","4","6","","","","","","","","","","",""
"","","","","","","","","","","","html-keyboard-response","18","2.0.0","100458","6556e5fa9feed5dca96b6dcd","4","6","null","","","","","","","","","<p style='font-size: 30px;'><strong>Okay</strong></p>","null","neutral_feedback","0","test","6","","","","","","","","","","","","","","","","",""
"","","","","","","","","","","","html-button-response","19","2.0.0","103138","6556e5fa9feed5dca96b6dcd","4","6","2677","","","","","","","","","<img src= ""rock_img/I_Peridotite_12.jpg"" style=""width:8cm; height:4.54cm;""><p>What type of rock is this?</p>","7","class_response","0","test","7","Pumice","Peridotite","12","false","8","7","","","","","","","","","","",""
"","","","","","","","","","","","html-keyboard-response","20","2.0.0","103641","6556e5fa9feed5dca96b6dcd","4","6","null","","","","","","","","","<p style='font-size: 30px;'><strong>Okay</strong></p>","null","neutral_feedback","0","test","7","","","","","","","","","","","","","","","","",""
"","","","","","","","","","","","html-button-response","21","2.0.0","106734","6556e5fa9feed5dca96b6dcd","4","6","3092","","","","","","","","","<img src= ""rock_img/I_Pegmatite_06.jpg"" style=""width:8cm; height:5.17cm;""><p>What type of rock is this?</p>","5","class_response","0","test","8","Pegmatite","Pegmatite","06","true","6","6","","","","","","","","","","",""
"","","","","","","","","","","","html-keyboard-response","22","2.0.0","107237","6556e5fa9feed5dca96b6dcd","4","6","null","","","","","","","","","<p style='font-size: 30px;'><strong>Okay</strong></p>","null","neutral_feedback","0","test","8","","","","","","","","","","","","","","","","",""
"","","","","","","","","","","","html-button-response","23","2.0.0","110019","6556e5fa9feed5dca96b6dcd","4","6","2780","","","","","","","","","<img src= ""rock_img/I_Andesite_11.jpg"" style=""width:8cm; height:4.92cm;""><p>What type of rock is this?</p>","2","class_response","0","test","9","Diorite","Andesite","11","false","3","1","","","","","","","","","","",""
"","","","","","","","","","","","html-keyboard-response","24","2.0.0","110524","6556e5fa9feed5dca96b6dcd","4","6","null","","","","","","","","","<p style='font-size: 30px;'><strong>Okay</strong></p>","null","neutral_feedback","0","test","9","","","","","","","","","","","","","","","","",""
"","","","","","","","","","","","html-button-response","25","2.0.0","114797","6556e5fa9feed5dca96b6dcd","4","6","4271","","","","","","","","","<img src= ""rock_img/I_Peridotite_04.jpg"" style=""width:8cm; height:6.680000000000001cm;""><p>What type of rock is this?</p>","1","class_response","0","test","10","Basalt","Peridotite","04","false","2","7","","","","","","","","","","",""
"","","","","","","","","","","","html-keyboard-response","26","2.0.0","115307","6556e5fa9feed5dca96b6dcd","4","6","null","","","","","","","","","<p style='font-size: 30px;'><strong>Okay</strong></p>","null","neutral_feedback","0","test","10","","","","","","","","","","","","","","","","",""
"","","","","","","","","","","","html-button-response","27","2.0.0","117004","6556e5fa9feed5dca96b6dcd","4","6","1696","","","","","","","","","<img src= ""rock_img/I_Pumice_04.jpg"" style=""width:8cm; height:6.819999999999999cm;""><p>What type of rock is this?</p>","7","class_response","0","test","11","Pumice","Pumice","04","true","8","8","","","","","","","","","","",""
"","","","","","","","","","","","html-keyboard-response","28","2.0.0","117508","6556e5fa9feed5dca96b6dcd","4","6","null","","","","","","","","","<p style='font-size: 30px;'><strong>Okay</strong></p>","null","neutral_feedback","0","test","11","","","","","","","","","","","","","","","","",""
"","","","","","","","","","","","html-button-response","29","2.0.0","121590","6556e5fa9feed5dca96b6dcd","4","6","4082","","","","","","","","","<img src= ""rock_img/I_Pegmatite_05.jpg"" style=""width:8cm; height:7.300000000000001cm;""><p>What type of rock is this?</p>","4","class_response","0","test","12","Obsidian","Pegmatite","05","false","5","6","","","","","","","","","","",""
"","","","","","","","","","","","html-keyboard-response","30","2.0.0","122093","6556e5fa9feed5dca96b6dcd","4","6","null","","","","","","","","","<p style='font-size: 30px;'><strong>Okay</strong></p>","null","neutral_feedback","0","test","12","","","","","","","","","","","","","","","","",""
"","","","","","","","","","","","html-button-response","31","2.0.0","125668","6556e5fa9feed5dca96b6dcd","4","6","3574","","","","","","","","","<img src= ""rock_img/I_Basalt_04.jpg"" style=""width:8cm; height:7.53cm;""><p>What type of rock is this?</p>","0","class_response","0","test","13","Andesite","Basalt","04","false","1","2","","","","","","","","","","",""
"","","","","","","","","","","","html-keyboard-response","32","2.0.0","126174","6556e5fa9feed5dca96b6dcd","4","6","null","","","","","","","","","<p style='font-size: 30px;'><strong>Okay</strong></p>","null","neutral_feedback","0","test","13","","","","","","","","","","","","","","","","",""
"","","","","","","","","","","","html-button-response","33","2.0.0","129286","6556e5fa9feed5dca96b6dcd","4","6","3111","","","","","","","","","<img src= ""rock_img/I_Basalt_02.jpg"" style=""width:8cm; height:6.45cm;""><p>What type of rock is this?</p>","3","class_response","0","test","14","Gabbro","Basalt","02","false","4","2","","","","","","","","","","",""
"","","","","","","","","","","","html-keyboard-response","34","2.0.0","129789","6556e5fa9feed5dca96b6dcd","4","6","null","","","","","","","","","<p style='font-size: 30px;'><strong>Okay</strong></p>","null","neutral_feedback","0","test","14","","","","","","","","","","","","","","","","",""
"","","","","","","","","","","","html-button-response","35","2.0.0","131419","6556e5fa9feed5dca96b6dcd","4","6","1628","","","","","","","","","<img src= ""rock_img/I_Obsidian_11.jpg"" style=""width:8cm; height:6.05cm;""><p>What type of rock is this?</p>","4","class_response","0","test","15","Obsidian","Obsidian","11","true","5","5","","","","","","","","","","",""
"","","","","","","","","","","","html-keyboard-response","36","2.0.0","131923","6556e5fa9feed5dca96b6dcd","4","6","null","","","","","","","","","<p style='font-size: 30px;'><strong>Okay</strong></p>","null","neutral_feedback","0","test","15","","","","","","","","","","","","","","","","",""
"","","","","","","","","","","","html-button-response","37","2.0.0","136688","6556e5fa9feed5dca96b6dcd","4","6","4763","","","","","","","","","<img src= ""rock_img/I_Gabbro_13.jpg"" style=""width:8cm; height:5.08cm;""><p>What type of rock is this?</p>","5","class_response","0","test","16","Pegmatite","Gabbro","13","false","6","4","","","","","","","","","","",""
"","","","","","","","","","","","html-keyboard-response","38","2.0.0","137200","6556e5fa9feed5dca96b6dcd","4","6","null","","","","","","","","","<p style='font-size: 30px;'><strong>Okay</strong></p>","null","neutral_feedback","0","test","16","","","","","","","","","","","","","","","","",""
"","","","","","","","","","","","html-button-response","39","2.0.0","139428","6556e5fa9feed5dca96b6dcd","4","6","2226","","","","","","","","","<img src= ""rock_img/I_Basalt_12.jpg"" style=""width:8cm; height:6.010000000000001cm;""><p>What type of rock is this?</p>","7","class_response","0","test","17","Pumice","Basalt","12","false","8","2","","","","","","","","","","",""
"","","","","","","","","","","","html-keyboard-response","40","2.0.0","139939","6556e5fa9feed5dca96b6dcd","4","6","null","","","","","","","","","<p style='font-size: 30px;'><strong>Okay</strong></p>","null","neutral_feedback","0","test","17","","","","","","","","","","","","","","","","",""
"","","","","","","","","","","","html-button-response","41","2.0.0","141002","6556e5fa9feed5dca96b6dcd","4","6","1062","","","","","","","","","<img src= ""rock_img/I_Peridotite_07.jpg"" style=""width:8cm; height:4.83cm;""><p>What type of rock is this?</p>","7","class_response","0","test","18","Pumice","Peridotite","07","false","8","7","","","","","","","","","","",""
"","","","","","","","","","","","html-keyboard-response","42","2.0.0","141505","6556e5fa9feed5dca96b6dcd","4","6","null","","","","","","","","","<p style='font-size: 30px;'><strong>Okay</strong></p>","null","neutral_feedback","0","test","18","","","","","","","","","","","","","","","","",""
"","","","","","","","","","","","html-button-response","43","2.0.0","146338","6556e5fa9feed5dca96b6dcd","4","6","4831","","","","","","","","","<img src= ""rock_img/I_Andesite_04.jpg"" style=""width:8cm; height:5.96cm;""><p>What type of rock is this?</p>","2","class_response","0","test","19","Diorite","Andesite","04","false","3","1","","","","","","","","","","",""
"","","","","","","","","","","","html-keyboard-response","44","2.0.0","146839","6556e5fa9feed5dca96b6dcd","4","6","null","","","","","","","","","<p style='font-size: 30px;'><strong>Okay</strong></p>","null","neutral_feedback","0","test","19","","","","","","","","","","","","","","","","",""
"","","","","","","","","","","","html-button-response","45","2.0.0","148398","6556e5fa9feed5dca96b6dcd","4","6","1558","","","","","","","","","<img src= ""rock_img/I_Obsidian_09.jpg"" style=""width:8cm; height:5cm;""><p>What type of rock is this?</p>","4","class_response","0","test","20","Obsidian","Obsidian","09","true","5","5","","","","","","","","","","",""
"","","","","","","","","","","","html-keyboard-response","46","2.0.0","148905","6556e5fa9feed5dca96b6dcd","4","6","null","","","","","","","","","<p style='font-size: 30px;'><strong>Okay</strong></p>","null","neutral_feedback","0","test","20","","","","","","","","","","","","","","","","",""
"","","","","","","","","","","","html-button-response","47","2.0.0","150594","6556e5fa9feed5dca96b6dcd","4","6","1687","","","","","","","","","<img src= ""rock_img/I_Peridotite_15.jpg"" style=""width:8cm; height:6cm;""><p>What type of rock is this?</p>","1","class_response","0","test","21","Basalt","Peridotite","15","false","2","7","","","","","","","","","","",""
"","","","","","","","","","","","html-keyboard-response","48","2.0.0","151098","6556e5fa9feed5dca96b6dcd","4","6","null","","","","","","","","","<p style='font-size: 30px;'><strong>Okay</strong></p>","null","neutral_feedback","0","test","21","","","","","","","","","","","","","","","","",""
"","","","","","","","","","","","html-button-response","49","2.0.0","154086","6556e5fa9feed5dca96b6dcd","4","6","2986","","","","","","","","","<img src= ""rock_img/I_Andesite_02.jpg"" style=""width:8cm; height:8.5cm;""><p>What type of rock is this?</p>","1","class_response","0","test","22","Basalt","Andesite","02","false","2","1","","","","","","","","","","",""
"","","","","","","","","","","","html-keyboard-response","50","2.0.0","154589","6556e5fa9feed5dca96b6dcd","4","6","null","","","","","","","","","<p style='font-size: 30px;'><strong>Okay</strong></p>","null","neutral_feedback","0","test","22","","","","","","","","","","","","","","","","",""
"","","","","","","","","","","","html-button-response","51","2.0.0","155903","6556e5fa9feed5dca96b6dcd","4","6","1313","","","","","","","","","<img src= ""rock_img/I_Diorite_06.jpg"" style=""width:8cm; height:6.03cm;""><p>What type of rock is this?</p>","1","class_response","0","test","23","Basalt","Diorite","06","false","2","3","","","","","","","","","","",""
"","","","","","","","","","","","html-keyboard-response","52","2.0.0","156406","6556e5fa9feed5dca96b6dcd","4","6","null","","","","","","","","","<p style='font-size: 30px;'><strong>Okay</strong></p>","null","neutral_feedback","0","test","23","","","","","","","","","","","","","","","","",""
"","","","","","","","","","","","html-button-response","53","2.0.0","158534","6556e5fa9feed5dca96b6dcd","4","6","2126","","","","","","","","","<img src= ""rock_img/I_Obsidian_06.jpg"" style=""width:8cm; height:6.8cm;""><p>What type of rock is this?</p>","4","class_response","0","test","24","Obsidian","Obsidian","06","true","5","5","","","","","","","","","","",""
"","","","","","","","","","","","html-keyboard-response","54","2.0.0","159039","6556e5fa9feed5dca96b6dcd","4","6","null","","","","","","","","","<p style='font-size: 30px;'><strong>Okay</strong></p>","null","neutral_feedback","0","test","24","","","","","","","","","","","","","","","","",""
"","","","","","","","","","","","html-button-response","55","2.0.0","161228","6556e5fa9feed5dca96b6dcd","4","6","2188","","","","","","","","","<img src= ""rock_img/I_Andesite_16.jpg"" style=""width:8cm; height:6.010000000000001cm;""><p>What type of rock is this?</p>","0","class_response","0","test","25","Andesite","Andesite","16","true","1","1","","","","","","","","","","",""
"","","","","","","","","","","","html-keyboard-response","56","2.0.0","161732","6556e5fa9feed5dca96b6dcd","4","6","null","","","","","","","","","<p style='font-size: 30px;'><strong>Okay</strong></p>","null","neutral_feedback","0","test","25","","","","","","","","","","","","","","","","",""
"","","","","","","","","","","","html-button-response","57","2.0.0","163210","6556e5fa9feed5dca96b6dcd","4","6","1476","","","","","","","","","<img src= ""rock_img/I_Diorite_07.jpg"" style=""width:8cm; height:5.239999999999999cm;""><p>What type of rock is this?</p>","4","class_response","0","test","26","Obsidian","Diorite","07","false","5","3","","","","","","","","","","",""
"","","","","","","","","","","","html-keyboard-response","58","2.0.0","163712","6556e5fa9feed5dca96b6dcd","4","6","null","","","","","","","","","<p style='font-size: 30px;'><strong>Okay</strong></p>","null","neutral_feedback","0","test","26","","","","","","","","","","","","","","","","",""
"","","","","","","","","","","","html-button-response","59","2.0.0","165980","6556e5fa9feed5dca96b6dcd","4","6","2266","","","","","","","","","<img src= ""rock_img/I_Pegmatite_03.jpg"" style=""width:8cm; height:5.239999999999999cm;""><p>What type of rock is this?</p>","5","class_response","0","test","27","Pegmatite","Pegmatite","03","true","6","6","","","","","","","","","","",""
"","","","","","","","","","","","html-keyboard-response","60","2.0.0","166488","6556e5fa9feed5dca96b6dcd","4","6","null","","","","","","","","","<p style='font-size: 30px;'><strong>Okay</strong></p>","null","neutral_feedback","0","test","27","","","","","","","","","","","","","","","","",""
"","","","","","","","","","","","html-button-response","61","2.0.0","168189","6556e5fa9feed5dca96b6dcd","4","6","1698","","","","","","","","","<img src= ""rock_img/I_Peridotite_08.jpg"" style=""width:8cm; height:6.7cm;""><p>What type of rock is this?</p>","7","class_response","0","test","28","Pumice","Peridotite","08","false","8","7","","","","","","","","","","",""
"","","","","","","","","","","","html-keyboard-response","62","2.0.0","168691","6556e5fa9feed5dca96b6dcd","4","6","null","","","","","","","","","<p style='font-size: 30px;'><strong>Okay</strong></p>","null","neutral_feedback","0","test","28","","","","","","","","","","","","","","","","",""
"","","","","","","","","","","","html-button-response","63","2.0.0","169910","6556e5fa9feed5dca96b6dcd","4","6","1218","","","","","","","","","<img src= ""rock_img/I_Obsidian_04.jpg"" style=""width:8cm; height:6.930000000000001cm;""><p>What type of rock is this?</p>","4","class_response","0","test","29","Obsidian","Obsidian","04","true","5","5","","","","","","","","","","",""
"","","","","","","","","","","","html-keyboard-response","64","2.0.0","170420","6556e5fa9feed5dca96b6dcd","4","6","null","","","","","","","","","<p style='font-size: 30px;'><strong>Okay</strong></p>","null","neutral_feedback","0","test","29","","","","","","","","","","","","","","","","",""
"","","","","","","","","","","","html-button-response","65","2.0.0","172457","6556e5fa9feed5dca96b6dcd","4","6","2034","","","","","","","","","<img src= ""rock_img/I_Diorite_16.jpg"" style=""width:8cm; height:6.74cm;""><p>What type of rock is this?</p>","2","class_response","0","test","30","Diorite","Diorite","16","true","3","3","","","","","","","","","","",""
"","","","","","","","","","","","html-keyboard-response","66","2.0.0","172962","6556e5fa9feed5dca96b6dcd","4","6","null","","","","","","","","","<p style='font-size: 30px;'><strong>Okay</strong></p>","null","neutral_feedback","0","test","30","","","","","","","","","","","","","","","","",""
"","","","","","","","","","","","html-button-response","67","2.0.0","174005","6556e5fa9feed5dca96b6dcd","4","6","1042","","","","","","","","","<img src= ""rock_img/I_Andesite_14.jpg"" style=""width:8cm; height:5.449999999999999cm;""><p>What type of rock is this?</p>","5","class_response","0","test","31","Pegmatite","Andesite","14","false","6","1","","","","","","","","","","",""
"","","","","","","","","","","","html-keyboard-response","68","2.0.0","174515","6556e5fa9feed5dca96b6dcd","4","6","null","","","","","","","","","<p style='font-size: 30px;'><strong>Okay</strong></p>","null","neutral_feedback","0","test","31","","","","","","","","","","","","","","","","",""
"","","","","","","","","","","","html-button-response","69","2.0.0","176006","6556e5fa9feed5dca96b6dcd","4","6","1490","","","","","","","","","<img src= ""rock_img/I_Peridotite_14.jpg"" style=""width:8cm; height:5.3cm;""><p>What type of rock is this?</p>","6","class_response","0","test","32","Peridotite","Peridotite","14","true","7","7","","","","","","","","","","",""
"","","","","","","","","","","","html-keyboard-response","70","2.0.0","176514","6556e5fa9feed5dca96b6dcd","4","6","null","","","","","","","","","<p style='font-size: 30px;'><strong>Okay</strong></p>","null","neutral_feedback","0","test","32","","","","","","","","","","","","","","","","",""
"","","","","","","","","","","","html-button-response","71","2.0.0","177810","6556e5fa9feed5dca96b6dcd","4","6","1294","","","","","","","","","<img src= ""rock_img/I_Pumice_09.jpg"" style=""width:8cm; height:6.44cm;""><p>What type of rock is this?</p>","7","class_response","0","test","33","Pumice","Pumice","09","true","8","8","","","","","","","","","","",""
"","","","","","","","","","","","html-keyboard-response","72","2.0.0","178316","6556e5fa9feed5dca96b6dcd","4","6","null","","","","","","","","","<p style='font-size: 30px;'><strong>Okay</strong></p>","null","neutral_feedback","0","test","33","","","","","","","","","","","","","","","","",""
"","","","","","","","","","","","html-button-response","73","2.0.0","179908","6556e5fa9feed5dca96b6dcd","4","6","1590","","","","","","","","","<img src= ""rock_img/I_Diorite_15.jpg"" style=""width:8cm; height:5.54cm;""><p>What type of rock is this?</p>","1","class_response","0","test","34","Basalt","Diorite","15","false","2","3","","","","","","","","","","",""
"","","","","","","","","","","","html-keyboard-response","74","2.0.0","180411","6556e5fa9feed5dca96b6dcd","4","6","null","","","","","","","","","<p style='font-size: 30px;'><strong>Okay</strong></p>","null","neutral_feedback","0","test","34","","","","","","","","","","","","","","","","",""
"","","","","","","","","","","","html-button-response","75","2.0.0","182316","6556e5fa9feed5dca96b6dcd","4","6","1904","","","","","","","","","<img src= ""rock_img/I_Obsidian_16.jpg"" style=""width:8cm; height:9.3cm;""><p>What type of rock is this?</p>","4","class_response","0","test","35","Obsidian","Obsidian","16","true","5","5","","","","","","","","","","",""
"","","","","","","","","","","","html-keyboard-response","76","2.0.0","182821","6556e5fa9feed5dca96b6dcd","4","6","null","","","","","","","","","<p style='font-size: 30px;'><strong>Okay</strong></p>","null","neutral_feedback","0","test","35","","","","","","","","","","","","","","","","",""
"","","","","","","","","","","","html-button-response","77","2.0.0","184922","6556e5fa9feed5dca96b6dcd","4","6","2100","","","","","","","","","<img src= ""rock_img/I_Pegmatite_12.jpg"" style=""width:8cm; height:5.7cm;""><p>What type of rock is this?</p>","0","class_response","0","test","36","Andesite","Pegmatite","12","false","1","6","","","","","","","","","","",""
"","","","","","","","","","","","html-keyboard-response","78","2.0.0","185427","6556e5fa9feed5dca96b6dcd","4","6","null","","","","","","","","","<p style='font-size: 30px;'><strong>Okay</strong></p>","null","neutral_feedback","0","test","36","","","","","","","","","","","","","","","","",""
"","","","","","","","","","","","html-button-response","79","2.0.0","186797","6556e5fa9feed5dca96b6dcd","4","6","1368","","","","","","","","","<img src= ""rock_img/I_Pumice_06.jpg"" style=""width:8cm; height:6.9399999999999995cm;""><p>What type of rock is this?</p>","7","class_response","0","test","37","Pumice","Pumice","06","true","8","8","","","","","","","","","","",""
"","","","","","","","","","","","html-keyboard-response","80","2.0.0","187306","6556e5fa9feed5dca96b6dcd","4","6","null","","","","","","","","","<p style='font-size: 30px;'><strong>Okay</strong></p>","null","neutral_feedback","0","test","37","","","","","","","","","","","","","","","","",""
"","","","","","","","","","","","html-button-response","81","2.0.0","189026","6556e5fa9feed5dca96b6dcd","4","6","1719","","","","","","","","","<img src= ""rock_img/I_Gabbro_16.jpg"" style=""width:8cm; height:6.44cm;""><p>What type of rock is this?</p>","3","class_response","0","test","38","Gabbro","Gabbro","16","true","4","4","","","","","","","","","","",""
"","","","","","","","","","","","html-keyboard-response","82","2.0.0","189529","6556e5fa9feed5dca96b6dcd","4","6","null","","","","","","","","","<p style='font-size: 30px;'><strong>Okay</strong></p>","null","neutral_feedback","0","test","38","","","","","","","","","","","","","","","","",""
"","","","","","","","","","","","html-button-response","83","2.0.0","191404","6556e5fa9feed5dca96b6dcd","4","6","1874","","","","","","","","","<img src= ""rock_img/I_Basalt_11.jpg"" style=""width:8cm; height:5.359999999999999cm;""><p>What type of rock is this?</p>","2","class_response","0","test","39","Diorite","Basalt","11","false","3","2","","","","","","","","","","",""
"","","","","","","","","","","","html-keyboard-response","84","2.0.0","191909","6556e5fa9feed5dca96b6dcd","4","6","null","","","","","","","","","<p style='font-size: 30px;'><strong>Okay</strong></p>","null","neutral_feedback","0","test","39","","","","","","","","","","","","","","","","",""
"","","","","","","","","","","","html-button-response","85","2.0.0","193181","6556e5fa9feed5dca96b6dcd","4","6","1271","","","","","","","","","<img src= ""rock_img/I_Pegmatite_10.jpg"" style=""width:8cm; height:4.16cm;""><p>What type of rock is this?</p>","6","class_response","0","test","40","Peridotite","Pegmatite","10","false","7","6","","","","","","","","","","",""
"","","","","","","","","","","","html-keyboard-response","86","2.0.0","193687","6556e5fa9feed5dca96b6dcd","4","6","null","","","","","","","","","<p style='font-size: 30px;'><strong>Okay</strong></p>","null","neutral_feedback","0","test","40","","","","","","","","","","","","","","","","",""
"","","","","","","","","","","","html-button-response","87","2.0.0","195106","6556e5fa9feed5dca96b6dcd","4","6","1416","","","","","","","","","<img src= ""rock_img/I_Obsidian_08.jpg"" style=""width:8cm; height:7.39cm;""><p>What type of rock is this?</p>","4","class_response","0","test","41","Obsidian","Obsidian","08","true","5","5","","","","","","","","","","",""
"","","","","","","","","","","","html-keyboard-response","88","2.0.0","195612","6556e5fa9feed5dca96b6dcd","4","6","null","","","","","","","","","<p style='font-size: 30px;'><strong>Okay</strong></p>","null","neutral_feedback","0","test","41","","","","","","","","","","","","","","","","",""
"","","","","","","","","","","","html-button-response","89","2.0.0","197073","6556e5fa9feed5dca96b6dcd","4","6","1460","","","","","","","","","<img src= ""rock_img/I_Diorite_13.jpg"" style=""width:8cm; height:6.29cm;""><p>What type of rock is this?</p>","1","class_response","0","test","42","Basalt","Diorite","13","false","2","3","","","","","","","","","","",""
"","","","","","","","","","","","html-keyboard-response","90","2.0.0","197579","6556e5fa9feed5dca96b6dcd","4","6","null","","","","","","","","","<p style='font-size: 30px;'><strong>Okay</strong></p>","null","neutral_feedback","0","test","42","","","","","","","","","","","","","","","","",""
"","","","","","","","","","","","html-button-response","91","2.0.0","198950","6556e5fa9feed5dca96b6dcd","4","6","1371","","","","","","","","","<img src= ""rock_img/I_Andesite_09.jpg"" style=""width:8cm; height:6cm;""><p>What type of rock is this?</p>","5","class_response","0","test","43","Pegmatite","Andesite","09","false","6","1","","","","","","","","","","",""
"","","","","","","","","","","","html-keyboard-response","92","2.0.0","199454","6556e5fa9feed5dca96b6dcd","4","6","null","","","","","","","","","<p style='font-size: 30px;'><strong>Okay</strong></p>","null","neutral_feedback","0","test","43","","","","","","","","","","","","","","","","",""
"","","","","","","","","","","","html-button-response","93","2.0.0","200687","6556e5fa9feed5dca96b6dcd","4","6","1231","","","","","","","","","<img src= ""rock_img/I_Pumice_03.jpg"" style=""width:8cm; height:6.64cm;""><p>What type of rock is this?</p>","2","class_response","0","test","44","Diorite","Pumice","03","false","3","8","","","","","","","","","","",""
"","","","","","","","","","","","html-keyboard-response","94","2.0.0","201194","6556e5fa9feed5dca96b6dcd","4","6","null","","","","","","","","","<p style='font-size: 30px;'><strong>Okay</strong></p>","null","neutral_feedback","0","test","44","","","","","","","","","","","","","","","","",""
"","","","","","","","","","","","html-button-response","95","2.0.0","202474","6556e5fa9feed5dca96b6dcd","4","6","1279","","","","","","","","","<img src= ""rock_img/I_Gabbro_10.jpg"" style=""width:8cm; height:5.680000000000001cm;""><p>What type of rock is this?</p>","6","class_response","0","test","45","Peridotite","Gabbro","10","false","7","4","","","","","","","","","","",""
"","","","","","","","","","","","html-keyboard-response","96","2.0.0","202978","6556e5fa9feed5dca96b6dcd","4","6","null","","","","","","","","","<p style='font-size: 30px;'><strong>Okay</strong></p>","null","neutral_feedback","0","test","45","","","","","","","","","","","","","","","","",""
"","","","","","","","","","","","html-button-response","97","2.0.0","204819","6556e5fa9feed5dca96b6dcd","4","6","1840","","","","","","","","","<img src= ""rock_img/I_Pumice_08.jpg"" style=""width:8cm; height:6.67cm;""><p>What type of rock is this?</p>","1","class_response","0","test","46","Basalt","Pumice","08","false","2","8","","","","","","","","","","",""
"","","","","","","","","","","","html-keyboard-response","98","2.0.0","205321","6556e5fa9feed5dca96b6dcd","4","6","null","","","","","","","","","<p style='font-size: 30px;'><strong>Okay</strong></p>","null","neutral_feedback","0","test","46","","","","","","","","","","","","","","","","",""
"","","","","","","","","","","","html-button-response","99","2.0.0","206874","6556e5fa9feed5dca96b6dcd","4","6","1551","","","","","","","","","<img src= ""rock_img/I_Pumice_13.jpg"" style=""width:8cm; height:8.200000000000001cm;""><p>What type of rock is this?</p>","7","class_response","0","test","47","Pumice","Pumice","13","true","8","8","","","","","","","","","","",""
"","","","","","","","","","","","html-keyboard-response","100","2.0.0","207377","6556e5fa9feed5dca96b6dcd","4","6","null","","","","","","","","","<p style='font-size: 30px;'><strong>Okay</strong></p>","null","neutral_feedback","0","test","47","","","","","","","","","","","","","","","","",""
"","","","","","","","","","","","html-button-response","101","2.0.0","208872","6556e5fa9feed5dca96b6dcd","4","6","1494","","","","","","","","","<img src= ""rock_img/I_Basalt_05.jpg"" style=""width:8cm; height:8.18cm;""><p>What type of rock is this?</p>","6","class_response","0","test","48","Peridotite","Basalt","05","false","7","2","","","","","","","","","","",""
"","","","","","","","","","","","html-keyboard-response","102","2.0.0","209376","6556e5fa9feed5dca96b6dcd","4","6","null","","","","","","","","","<p style='font-size: 30px;'><strong>Okay</strong></p>","null","neutral_feedback","0","test","48","","","","","","","","","","","","","","","","",""
"","","","","","","","","","","","instructions","103","2.0.0","237446","6556e5fa9feed5dca96b6dcd","4","6","28046","","","","","","","","[{""page_index"":0,""viewing_time"":24026},{""page_index"":1,""viewing_time"":4020}]","","","","","","","","","","","","","","","","","","","","","","",""
"","","","","","","","","","","","html-button-response","104","2.0.0","242259","6556e5fa9feed5dca96b6dcd","4","6","4811","","","","","","","","","","0","start_train","","","","","","","","","","","","","","","","","","","",""
"","","","","","","","","","","","html-button-response","106","2.0.0","244651","6556e5fa9feed5dca96b6dcd","4","6","2389","","","","","","","","","<img src= ""rock_img/I_Pumice_10.jpg"" style=""width:8cm; height:7.609999999999999cm;""><p>What type of rock is this?</p>","0","class_response","1","train","1","Andesite","Pumice","10","false","1","8","","","","","","","","","","",""
"","","","","","","","","","","","html-button-response","107","2.0.0","245939","6556e5fa9feed5dca96b6dcd","4","6","1286","","","","","","","","","<img src= rock_img/I_Pumice_10.jpg style=""width:8cm; height:7.609999999999999cm;""><p style='font-size: 30px; color: red;'><strong>Incorrect!</strong></p><p style='font-size: 30px;'><strong>This rock is pumice</strong></p>","0","corr_feedback","1","train","1","","","","","","","","","","","","","","","","",""
"","","","","","","","","","","","html-button-response","108","2.0.0","248642","6556e5fa9feed5dca96b6dcd","4","6","2701","","","","","","","","","<img src= ""rock_img/I_Basalt_08.jpg"" style=""width:8cm; height:10.44cm;""><p>What type of rock is this?</p>","5","class_response","1","train","2","Pegmatite","Basalt","08","false","6","2","","","","","","","","","","",""
"","","","","","","","","","","","html-button-response","109","2.0.0","250809","6556e5fa9feed5dca96b6dcd","4","6","2166","","","","","","","","","<img src= rock_img/I_Basalt_08.jpg style=""width:8cm; height:10.44cm;""><p style='font-size: 30px; color: red;'><strong>Incorrect!</strong></p><p style='font-size: 30px;'><strong>This rock is basalt</strong></p>","0","corr_feedback","1","train","2","","","","","","","","","","","","","","","","",""
"","","","","","","","","","","","html-button-response","110","2.0.0","253246","6556e5fa9feed5dca96b6dcd","4","6","2436","","","","","","","","","<img src= ""rock_img/I_Peridotite_02.jpg"" style=""width:8cm; height:5.859999999999999cm;""><p>What type of rock is this?</p>","0","class_response","1","train","3","Andesite","Peridotite","02","false","1","7","","","","","","","","","","",""
"","","","","","","","","","","","html-button-response","111","2.0.0","254384","6556e5fa9feed5dca96b6dcd","4","6","1136","","","","","","","","","<img src= rock_img/I_Peridotite_02.jpg style=""width:8cm; height:5.859999999999999cm;""><p style='font-size: 30px; color: red;'><strong>Incorrect!</strong></p><p style='font-size: 30px;'><strong>This rock is peridotite</strong></p>","0","corr_feedback","1","train","3","","","","","","","","","","","","","","","","",""
"","","","","","","","","","","","html-button-response","112","2.0.0","256208","6556e5fa9feed5dca96b6dcd","4","6","1823","","","","","","","","","<img src= ""rock_img/I_Pumice_14.jpg"" style=""width:8cm; height:6.39cm;""><p>What type of rock is this?</p>","2","class_response","1","train","4","Diorite","Pumice","14","false","3","8","","","","","","","","","","",""
"","","","","","","","","","","","html-button-response","113","2.0.0","257301","6556e5fa9feed5dca96b6dcd","4","6","1091","","","","","","","","","<img src= rock_img/I_Pumice_14.jpg style=""width:8cm; height:6.39cm;""><p style='font-size: 30px; color: red;'><strong>Incorrect!</strong></p><p style='font-size: 30px;'><strong>This rock is pumice</strong></p>","0","corr_feedback","1","train","4","","","","","","","","","","","","","","","","",""
"","","","","","","","","","","","html-button-response","114","2.0.0","258540","6556e5fa9feed5dca96b6dcd","4","6","1237","","","","","","","","","<img src= ""rock_img/I_Obsidian_14.jpg"" style=""width:8cm; height:7.64cm;""><p>What type of rock is this?</p>","4","class_response","1","train","5","Obsidian","Obsidian","14","true","5","5","","","","","","","","","","",""
"","","","","","","","","","","","html-button-response","115","2.0.0","259901","6556e5fa9feed5dca96b6dcd","4","6","1360","","","","","","","","","<img src= rock_img/I_Obsidian_14.jpg style=""width:8cm; height:7.64cm;""><p style='font-size: 30px; color: green;'><strong>Correct!</strong></p><p style='font-size: 30px;'><strong>This rock is obsidian</strong></p>","0","corr_feedback","1","train","5","","","","","","","","","","","","","","","","",""
"","","","","","","","","","","","html-button-response","116","2.0.0","262800","6556e5fa9feed5dca96b6dcd","4","6","2897","","","","","","","","","<img src= ""rock_img/I_Gabbro_08.jpg"" style=""width:8cm; height:5.15cm;""><p>What type of rock is this?</p>","2","class_response","1","train","6","Diorite","Gabbro","08","false","3","4","","","","","","","","","","",""
"","","","","","","","","","","","html-button-response","117","2.0.0","263811","6556e5fa9feed5dca96b6dcd","4","6","1010","","","","","","","","","<img src= rock_img/I_Gabbro_08.jpg style=""width:8cm; height:5.15cm;""><p style='font-size: 30px; color: red;'><strong>Incorrect!</strong></p><p style='font-size: 30px;'><strong>This rock is gabbro</strong></p>","0","corr_feedback","1","train","6","","","","","","","","","","","","","","","","",""
"","","","","","","","","","","","html-button-response","118","2.0.0","265269","6556e5fa9feed5dca96b6dcd","4","6","1456","","","","","","","","","<img src= ""rock_img/I_Peridotite_10.jpg"" style=""width:8cm; height:5.390000000000001cm;""><p>What type of rock is this?</p>","3","class_response","1","train","7","Gabbro","Peridotite","10","false","4","7","","","","","","","","","","",""
"","","","","","","","","","","","html-button-response","119","2.0.0","266287","6556e5fa9feed5dca96b6dcd","4","6","1017","","","","","","","","","<img src= rock_img/I_Peridotite_10.jpg style=""width:8cm; height:5.390000000000001cm;""><p style='font-size: 30px; color: red;'><strong>Incorrect!</strong></p><p style='font-size: 30px;'><strong>This rock is peridotite</strong></p>","0","corr_feedback","1","train","7","","","","","","","","","","","","","","","","",""
"","","","","","","","","","","","html-button-response","120","2.0.0","268295","6556e5fa9feed5dca96b6dcd","4","6","2006","","","","","","","","","<img src= ""rock_img/I_Andesite_06.jpg"" style=""width:8cm; height:6.840000000000001cm;""><p>What type of rock is this?</p>","3","class_response","1","train","8","Gabbro","Andesite","06","false","4","1","","","","","","","","","","",""
"","","","","","","","","","","","html-button-response","121","2.0.0","269915","6556e5fa9feed5dca96b6dcd","4","6","1618","","","","","","","","","<img src= rock_img/I_Andesite_06.jpg style=""width:8cm; height:6.840000000000001cm;""><p style='font-size: 30px; color: red;'><strong>Incorrect!</strong></p><p style='font-size: 30px;'><strong>This rock is andesite</strong></p>","0","corr_feedback","1","train","8","","","","","","","","","","","","","","","","",""
"","","","","","","","","","","","html-button-response","122","2.0.0","271395","6556e5fa9feed5dca96b6dcd","4","6","1478","","","","","","","","","<img src= ""rock_img/I_Obsidian_05.jpg"" style=""width:8cm; height:6.33cm;""><p>What type of rock is this?</p>","4","class_response","1","train","9","Obsidian","Obsidian","05","true","5","5","","","","","","","","","","",""
"","","","","","","","","","","","html-button-response","123","2.0.0","272558","6556e5fa9feed5dca96b6dcd","4","6","1161","","","","","","","","","<img src= rock_img/I_Obsidian_05.jpg style=""width:8cm; height:6.33cm;""><p style='font-size: 30px; color: green;'><strong>Correct!</strong></p><p style='font-size: 30px;'><strong>This rock is obsidian</strong></p>","0","corr_feedback","1","train","9","","","","","","","","","","","","","","","","",""
"","","","","","","","","","","","html-button-response","124","2.0.0","274130","6556e5fa9feed5dca96b6dcd","4","6","1570","","","","","","","","","<img src= ""rock_img/I_Pegmatite_15.jpg"" style=""width:8cm; height:6cm;""><p>What type of rock is this?</p>","4","class_response","1","train","10","Obsidian","Pegmatite","15","false","5","6","","","","","","","","","","",""
"","","","","","","","","","","","html-button-response","125","2.0.0","275150","6556e5fa9feed5dca96b6dcd","4","6","1018","","","","","","","","","<img src= rock_img/I_Pegmatite_15.jpg style=""width:8cm; height:6cm;""><p style='font-size: 30px; color: red;'><strong>Incorrect!</strong></p><p style='font-size: 30px;'><strong>This rock is pegmatite</strong></p>","0","corr_feedback","1","train","10","","","","","","","","","","","","","","","","",""
"","","","","","","","","","","","html-button-response","126","2.0.0","276884","6556e5fa9feed5dca96b6dcd","4","6","1733","","","","","","","","","<img src= ""rock_img/I_Basalt_06.jpg"" style=""width:8cm; height:7.06cm;""><p>What type of rock is this?</p>","2","class_response","1","train","11","Diorite","Basalt","06","false","3","2","","","","","","","","","","",""
"","","","","","","","","","","","html-button-response","127","2.0.0","277801","6556e5fa9feed5dca96b6dcd","4","6","915","","","","","","","","","<img src= rock_img/I_Basalt_06.jpg style=""width:8cm; height:7.06cm;""><p style='font-size: 30px; color: red;'><strong>Incorrect!</strong></p><p style='font-size: 30px;'><strong>This rock is basalt</strong></p>","0","corr_feedback","1","train","11","","","","","","","","","","","","","","","","",""
"","","","","","","","","","","","html-button-response","128","2.0.0","279042","6556e5fa9feed5dca96b6dcd","4","6","1240","","","","","","","","","<img src= ""rock_img/I_Diorite_10.jpg"" style=""width:8cm; height:5.949999999999999cm;""><p>What type of rock is this?</p>","1","class_response","1","train","12","Basalt","Diorite","10","false","2","3","","","","","","","","","","",""
"","","","","","","","","","","","html-button-response","129","2.0.0","280093","6556e5fa9feed5dca96b6dcd","4","6","1049","","","","","","","","","<img src= rock_img/I_Diorite_10.jpg style=""width:8cm; height:5.949999999999999cm;""><p style='font-size: 30px; color: red;'><strong>Incorrect!</strong></p><p style='font-size: 30px;'><strong>This rock is diorite</strong></p>","0","corr_feedback","1","train","12","","","","","","","","","","","","","","","","",""
"","","","","","","","","","","","instructions","130","2.0.0","300922","6556e5fa9feed5dca96b6dcd","4","6","20828","","","","","","","","[{""page_index"":0,""viewing_time"":7416},{""page_index"":1,""viewing_time"":4835},{""page_index"":2,""viewing_time"":5017},{""page_index"":3,""viewing_time"":3561}]","","","","","","","","","","","","","","","","","","","","","","",""
"","","","","","","","","","","","html-button-response","131","2.0.0","302258","6556e5fa9feed5dca96b6dcd","4","6","1334","","","","","","","","","","0","start_train","","","","","","","","","","","","","","","","","","","",""
"","","","","","","","","","","","html-button-response","132","2.0.0","306378","6556e5fa9feed5dca96b6dcd","4","6","","","","","","","","","","","","cat_selection","1","train","1","","","","","","","2132.7000007629395","1985.599998474121","1","3","","","","","","",""
"","","","","","","","","","","","paired-cat-display","133","1.0.0","366116","6556e5fa9feed5dca96b6dcd","4","6","","","","","","","","","","","","paired_cat_display","1","train","1","","","","","","","","","","","","","Color, texture, shape","Color, mixure, shape","9686.399997711182","50047.90000152588",""
"","","","","","","","","","","","html-button-response","134","2.0.0","373162","6556e5fa9feed5dca96b6dcd","4","6","","","","","","","","","","","","cat_selection","1","train","2","","","","","","","5070.400001525879","1973.3999977111816","3","4","Andesite","Diorite","","","","",""
"","","","","","","","","","","","paired-cat-display","135","1.0.0","414196","6556e5fa9feed5dca96b6dcd","4","6","","","","","","","","","","","","paired_cat_display","1","train","2","","","","","","","","","","","","","","Color, shape, texture","7589.5","33441.89999771118","color, shape, texture"
"","","","","","","","","","","","html-button-response","136","2.0.0","419328","6556e5fa9feed5dca96b6dcd","4","6","","","","","","","","","","","","cat_selection","1","train","3","","","","","","","3574.599998474121","1556.900001525879","7","6","Diorite","Gabbro","","","","",""
