"width","height","webaudio","browser","browser_version","mobile","os","fullscreen","vsync_rate","webcam","microphone","trial_type","trial_index","plugin_version","time_elapsed","subjID","condition","stimID","rt","url","success","value","timeout","failed_images","failed_audio","failed_video","view_history","stimulus","response","trialType","cycle","phase","trial","resp","cat","token","corr","resp_num","cat_num","rt_ref","rt_paired","ref_cat_num","paired_cat_num","ref_cat","paired_cat"
"1902","901","true","chrome","130.0.0","false","Windows 10","true","60.59","true","true","browser-check","0","2.0.0","1012","6172cf92f2ea6613f717abb6","4","11","","","","","","","","","","","","","","","","","","","","","","","","","","",""
"","","","","","","","","","","","external-html","1","2.0.0","13622","6172cf92f2ea6613f717abb6","4","11","12534","consent_form.html","","","","","","","","","","","","","","","","","","","","","","","","",""
"","","","","","","","","","","","fullscreen","2","2.0.0","21924","6172cf92f2ea6613f717abb6","4","11","7297","","true","","","","","","","","","","","","","","","","","","","","","","","",""
"","","","","","","","","","","","call-function","3","2.0.0","21930","6172cf92f2ea6613f717abb6","4","11","","","","{}","","","","","","","","","","","","","","","","","","","","","","",""
"","","","","","","","","","","","preload","4","2.0.0","25895","6172cf92f2ea6613f717abb6","4","11","","","true","","false","[]","[]","[]","","","","","","","","","","","","","","","","","","",""
"","","","","","","","","","","","instructions","5","2.0.0","152429","6172cf92f2ea6613f717abb6","4","11","126535","","","","","","","","[{""page_index"":0,""viewing_time"":18773},{""page_index"":1,""viewing_time"":55982},{""page_index"":2,""viewing_time"":51780}]","","","","","","","","","","","","","","","","","",""
"","","","","","","","","","","","html-button-response","6","2.0.0","162723","6172cf92f2ea6613f717abb6","4","11","10293","","","","","","","","","","0","start_test","","","","","","","","","","","","","","",""
"","","","","","","","","","","","html-button-response","7","2.0.0","170919","6172cf92f2ea6613f717abb6","4","11","8192","","","","","","","","","<img src= ""rock_img/I_Peridotite_05.jpg"" style=""width:8cm; height:7.1499999999999995cm;""><p>What type of rock is this?</p>","7","class_response","0","test","1","Pumice","Peridotite","05","false","8","7","","","","","",""
"","","","","","","","","","","","html-keyboard-response","8","2.0.0","171435","6172cf92f2ea6613f717abb6","4","11","null","","","","","","","","","<p style='font-size: 30px;'><strong>Okay</strong></p>","null","neutral_feedback","0","test","1","","","","","","","","","","","",""
"","","","","","","","","","","","html-button-response","9","2.0.0","176782","6172cf92f2ea6613f717abb6","4","11","5344","","","","","","","","","<img src= ""rock_img/I_Andesite_04.jpg"" style=""width:8cm; height:5.96cm;""><p>What type of rock is this?</p>","5","class_response","0","test","2","Pegmatite","Andesite","04","false","6","1","","","","","",""
"","","","","","","","","","","","html-keyboard-response","10","2.0.0","177296","6172cf92f2ea6613f717abb6","4","11","null","","","","","","","","","<p style='font-size: 30px;'><strong>Okay</strong></p>","null","neutral_feedback","0","test","2","","","","","","","","","","","",""
"","","","","","","","","","","","html-button-response","11","2.0.0","180982","6172cf92f2ea6613f717abb6","4","11","3682","","","","","","","","","<img src= ""rock_img/I_Obsidian_08.jpg"" style=""width:8cm; height:7.39cm;""><p>What type of rock is this?</p>","4","class_response","0","test","3","Obsidian","Obsidian","08","true","5","5","","","","","",""
"","","","","","","","","","","","html-keyboard-response","12","2.0.0","181488","6172cf92f2ea6613f717abb6","4","11","null","","","","","","","","","<p style='font-size: 30px;'><strong>Okay</strong></p>","null","neutral_feedback","0","test","3","","","","","","","","","","","",""
"","","","","","","","","","","","html-button-response","13","2.0.0","193043","6172cf92f2ea6613f717abb6","4","11","11553","","","","","","","","","<img src= ""rock_img/I_Andesite_16.jpg"" style=""width:8cm; height:6.010000000000001cm;""><p>What type of rock is this?</p>","2","class_response","0","test","4","Diorite","Andesite","16","false","3","1","","","","","",""
"","","","","","","","","","","","html-keyboard-response","14","2.0.0","193550","6172cf92f2ea6613f717abb6","4","11","null","","","","","","","","","<p style='font-size: 30px;'><strong>Okay</strong></p>","null","neutral_feedback","0","test","4","","","","","","","","","","","",""
"","","","","","","","","","","","html-button-response","15","2.0.0","207209","6172cf92f2ea6613f717abb6","4","11","13656","","","","","","","","","<img src= ""rock_img/I_Pumice_14.jpg"" style=""width:8cm; height:6.39cm;""><p>What type of rock is this?</p>","1","class_response","0","test","5","Basalt","Pumice","14","false","2","8","","","","","",""
"","","","","","","","","","","","html-keyboard-response","16","2.0.0","207711","6172cf92f2ea6613f717abb6","4","11","null","","","","","","","","","<p style='font-size: 30px;'><strong>Okay</strong></p>","null","neutral_feedback","0","test","5","","","","","","","","","","","",""
"","","","","","","","","","","","html-button-response","17","2.0.0","215129","6172cf92f2ea6613f717abb6","4","11","7416","","","","","","","","","<img src= ""rock_img/I_Basalt_11.jpg"" style=""width:8cm; height:5.359999999999999cm;""><p>What type of rock is this?</p>","0","class_response","0","test","6","Andesite","Basalt","11","false","1","2","","","","","",""
"","","","","","","","","","","","html-keyboard-response","18","2.0.0","215644","6172cf92f2ea6613f717abb6","4","11","null","","","","","","","","","<p style='font-size: 30px;'><strong>Okay</strong></p>","null","neutral_feedback","0","test","6","","","","","","","","","","","",""
"","","","","","","","","","","","html-button-response","19","2.0.0","226095","6172cf92f2ea6613f717abb6","4","11","10452","","","","","","","","","<img src= ""rock_img/I_Basalt_09.jpg"" style=""width:8cm; height:6.2cm;""><p>What type of rock is this?</p>","6","class_response","0","test","7","Peridotite","Basalt","09","false","7","2","","","","","",""
"","","","","","","","","","","","html-keyboard-response","20","2.0.0","226611","6172cf92f2ea6613f717abb6","4","11","null","","","","","","","","","<p style='font-size: 30px;'><strong>Okay</strong></p>","null","neutral_feedback","0","test","7","","","","","","","","","","","",""
"","","","","","","","","","","","html-button-response","21","2.0.0","236519","6172cf92f2ea6613f717abb6","4","11","9904","","","","","","","","","<img src= ""rock_img/I_Peridotite_15.jpg"" style=""width:8cm; height:6cm;""><p>What type of rock is this?</p>","0","class_response","0","test","8","Andesite","Peridotite","15","false","1","7","","","","","",""
"","","","","","","","","","","","html-keyboard-response","22","2.0.0","237037","6172cf92f2ea6613f717abb6","4","11","null","","","","","","","","","<p style='font-size: 30px;'><strong>Okay</strong></p>","null","neutral_feedback","0","test","8","","","","","","","","","","","",""
"","","","","","","","","","","","html-button-response","23","2.0.0","243839","6172cf92f2ea6613f717abb6","4","11","6799","","","","","","","","","<img src= ""rock_img/I_Diorite_15.jpg"" style=""width:8cm; height:5.54cm;""><p>What type of rock is this?</p>","3","class_response","0","test","9","Gabbro","Diorite","15","false","4","3","","","","","",""
"","","","","","","","","","","","html-keyboard-response","24","2.0.0","244352","6172cf92f2ea6613f717abb6","4","11","null","","","","","","","","","<p style='font-size: 30px;'><strong>Okay</strong></p>","null","neutral_feedback","0","test","9","","","","","","","","","","","",""
"","","","","","","","","","","","html-button-response","25","2.0.0","264594","6172cf92f2ea6613f717abb6","4","11","20238","","","","","","","","","<img src= ""rock_img/I_Diorite_13.jpg"" style=""width:8cm; height:6.29cm;""><p>What type of rock is this?</p>","2","class_response","0","test","10","Diorite","Diorite","13","true","3","3","","","","","",""
"","","","","","","","","","","","html-keyboard-response","26","2.0.0","265100","6172cf92f2ea6613f717abb6","4","11","null","","","","","","","","","<p style='font-size: 30px;'><strong>Okay</strong></p>","null","neutral_feedback","0","test","10","","","","","","","","","","","",""
"","","","","","","","","","","","html-button-response","27","2.0.0","270752","6172cf92f2ea6613f717abb6","4","11","5650","","","","","","","","","<img src= ""rock_img/I_Gabbro_15.jpg"" style=""width:8cm; height:6.29cm;""><p>What type of rock is this?</p>","3","class_response","0","test","11","Gabbro","Gabbro","15","true","4","4","","","","","",""
"","","","","","","","","","","","html-keyboard-response","28","2.0.0","271268","6172cf92f2ea6613f717abb6","4","11","null","","","","","","","","","<p style='font-size: 30px;'><strong>Okay</strong></p>","null","neutral_feedback","0","test","11","","","","","","","","","","","",""
"","","","","","","","","","","","html-button-response","29","2.0.0","274742","6172cf92f2ea6613f717abb6","4","11","3471","","","","","","","","","<img src= ""rock_img/I_Pegmatite_07.jpg"" style=""width:8cm; height:6.7cm;""><p>What type of rock is this?</p>","4","class_response","0","test","12","Obsidian","Pegmatite","07","false","5","6","","","","","",""
"","","","","","","","","","","","html-keyboard-response","30","2.0.0","275252","6172cf92f2ea6613f717abb6","4","11","null","","","","","","","","","<p style='font-size: 30px;'><strong>Okay</strong></p>","null","neutral_feedback","0","test","12","","","","","","","","","","","",""
"","","","","","","","","","","","html-button-response","31","2.0.0","281577","6172cf92f2ea6613f717abb6","4","11","6322","","","","","","","","","<img src= ""rock_img/I_Pegmatite_16.jpg"" style=""width:8cm; height:5.8cm;""><p>What type of rock is this?</p>","2","class_response","0","test","13","Diorite","Pegmatite","16","false","3","6","","","","","",""
"","","","","","","","","","","","html-keyboard-response","32","2.0.0","282084","6172cf92f2ea6613f717abb6","4","11","null","","","","","","","","","<p style='font-size: 30px;'><strong>Okay</strong></p>","null","neutral_feedback","0","test","13","","","","","","","","","","","",""
"","","","","","","","","","","","html-button-response","33","2.0.0","286763","6172cf92f2ea6613f717abb6","4","11","4676","","","","","","","","","<img src= ""rock_img/I_Obsidian_07.jpg"" style=""width:8cm; height:4.76cm;""><p>What type of rock is this?</p>","0","class_response","0","test","14","Andesite","Obsidian","07","false","1","5","","","","","",""
"","","","","","","","","","","","html-keyboard-response","34","2.0.0","287265","6172cf92f2ea6613f717abb6","4","11","null","","","","","","","","","<p style='font-size: 30px;'><strong>Okay</strong></p>","null","neutral_feedback","0","test","14","","","","","","","","","","","",""
"","","","","","","","","","","","html-button-response","35","2.0.0","293251","6172cf92f2ea6613f717abb6","4","11","5983","","","","","","","","","<img src= ""rock_img/I_Gabbro_10.jpg"" style=""width:8cm; height:5.680000000000001cm;""><p>What type of rock is this?</p>","5","class_response","0","test","15","Pegmatite","Gabbro","10","false","6","4","","","","","",""
"","","","","","","","","","","","html-keyboard-response","36","2.0.0","293768","6172cf92f2ea6613f717abb6","4","11","null","","","","","","","","","<p style='font-size: 30px;'><strong>Okay</strong></p>","null","neutral_feedback","0","test","15","","","","","","","","","","","",""
"","","","","","","","","","","","html-button-response","37","2.0.0","304576","6172cf92f2ea6613f717abb6","4","11","10805","","","","","","","","","<img src= ""rock_img/I_Andesite_09.jpg"" style=""width:8cm; height:6cm;""><p>What type of rock is this?</p>","6","class_response","0","test","16","Peridotite","Andesite","09","false","7","1","","","","","",""
"","","","","","","","","","","","html-keyboard-response","38","2.0.0","305083","6172cf92f2ea6613f717abb6","4","11","null","","","","","","","","","<p style='font-size: 30px;'><strong>Okay</strong></p>","null","neutral_feedback","0","test","16","","","","","","","","","","","",""
"","","","","","","","","","","","html-button-response","39","2.0.0","310591","6172cf92f2ea6613f717abb6","4","11","5506","","","","","","","","","<img src= ""rock_img/I_Pegmatite_08.jpg"" style=""width:8cm; height:7.68cm;""><p>What type of rock is this?</p>","1","class_response","0","test","17","Basalt","Pegmatite","08","false","2","6","","","","","",""
"","","","","","","","","","","","html-keyboard-response","40","2.0.0","311095","6172cf92f2ea6613f717abb6","4","11","null","","","","","","","","","<p style='font-size: 30px;'><strong>Okay</strong></p>","null","neutral_feedback","0","test","17","","","","","","","","","","","",""
"","","","","","","","","","","","html-button-response","41","2.0.0","323190","6172cf92f2ea6613f717abb6","4","11","12093","","","","","","","","","<img src= ""rock_img/I_Peridotite_07.jpg"" style=""width:8cm; height:4.83cm;""><p>What type of rock is this?</p>","2","class_response","0","test","18","Diorite","Peridotite","07","false","3","7","","","","","",""
"","","","","","","","","","","","html-keyboard-response","42","2.0.0","323705","6172cf92f2ea6613f717abb6","4","11","null","","","","","","","","","<p style='font-size: 30px;'><strong>Okay</strong></p>","null","neutral_feedback","0","test","18","","","","","","","","","","","",""
"","","","","","","","","","","","html-button-response","43","2.0.0","340676","6172cf92f2ea6613f717abb6","4","11","16968","","","","","","","","","<img src= ""rock_img/I_Pegmatite_03.jpg"" style=""width:8cm; height:5.239999999999999cm;""><p>What type of rock is this?</p>","1","class_response","0","test","19","Basalt","Pegmatite","03","false","2","6","","","","","",""
"","","","","","","","","","","","html-keyboard-response","44","2.0.0","341180","6172cf92f2ea6613f717abb6","4","11","null","","","","","","","","","<p style='font-size: 30px;'><strong>Okay</strong></p>","null","neutral_feedback","0","test","19","","","","","","","","","","","",""
"","","","","","","","","","","","html-button-response","45","2.0.0","345133","6172cf92f2ea6613f717abb6","4","11","3953","","","","","","","","","<img src= ""rock_img/I_Diorite_11.jpg"" style=""width:8cm; height:7.11cm;""><p>What type of rock is this?</p>","6","class_response","0","test","20","Peridotite","Diorite","11","false","7","3","","","","","",""
"","","","","","","","","","","","html-keyboard-response","46","2.0.0","345642","6172cf92f2ea6613f717abb6","4","11","null","","","","","","","","","<p style='font-size: 30px;'><strong>Okay</strong></p>","null","neutral_feedback","0","test","20","","","","","","","","","","","",""
"","","","","","","","","","","","html-button-response","47","2.0.0","348340","6172cf92f2ea6613f717abb6","4","11","2695","","","","","","","","","<img src= ""rock_img/I_Basalt_14.jpg"" style=""width:8cm; height:5.82cm;""><p>What type of rock is this?</p>","1","class_response","0","test","21","Basalt","Basalt","14","true","2","2","","","","","",""
"","","","","","","","","","","","html-keyboard-response","48","2.0.0","348845","6172cf92f2ea6613f717abb6","4","11","null","","","","","","","","","<p style='font-size: 30px;'><strong>Okay</strong></p>","null","neutral_feedback","0","test","21","","","","","","","","","","","",""
"","","","","","","","","","","","html-button-response","49","2.0.0","351420","6172cf92f2ea6613f717abb6","4","11","2573","","","","","","","","","<img src= ""rock_img/I_Basalt_06.jpg"" style=""width:8cm; height:7.06cm;""><p>What type of rock is this?</p>","4","class_response","0","test","22","Obsidian","Basalt","06","false","5","2","","","","","",""
"","","","","","","","","","","","html-keyboard-response","50","2.0.0","351927","6172cf92f2ea6613f717abb6","4","11","null","","","","","","","","","<p style='font-size: 30px;'><strong>Okay</strong></p>","null","neutral_feedback","0","test","22","","","","","","","","","","","",""
"","","","","","","","","","","","html-button-response","51","2.0.0","355455","6172cf92f2ea6613f717abb6","4","11","3526","","","","","","","","","<img src= ""rock_img/I_Gabbro_13.jpg"" style=""width:8cm; height:5.08cm;""><p>What type of rock is this?</p>","3","class_response","0","test","23","Gabbro","Gabbro","13","true","4","4","","","","","",""
"","","","","","","","","","","","html-keyboard-response","52","2.0.0","355962","6172cf92f2ea6613f717abb6","4","11","null","","","","","","","","","<p style='font-size: 30px;'><strong>Okay</strong></p>","null","neutral_feedback","0","test","23","","","","","","","","","","","",""
"","","","","","","","","","","","html-button-response","53","2.0.0","385946","6172cf92f2ea6613f717abb6","4","11","29982","","","","","","","","","<img src= ""rock_img/I_Andesite_14.jpg"" style=""width:8cm; height:5.449999999999999cm;""><p>What type of rock is this?</p>","3","class_response","0","test","24","Gabbro","Andesite","14","false","4","1","","","","","",""
"","","","","","","","","","","","html-keyboard-response","54","2.0.0","386462","6172cf92f2ea6613f717abb6","4","11","null","","","","","","","","","<p style='font-size: 30px;'><strong>Okay</strong></p>","null","neutral_feedback","0","test","24","","","","","","","","","","","",""
"","","","","","","","","","","","html-button-response","55","2.0.0","390679","6172cf92f2ea6613f717abb6","4","11","4215","","","","","","","","","<img src= ""rock_img/I_Basalt_04.jpg"" style=""width:8cm; height:7.53cm;""><p>What type of rock is this?</p>","6","class_response","0","test","25","Peridotite","Basalt","04","false","7","2","","","","","",""
"","","","","","","","","","","","html-keyboard-response","56","2.0.0","391182","6172cf92f2ea6613f717abb6","4","11","null","","","","","","","","","<p style='font-size: 30px;'><strong>Okay</strong></p>","null","neutral_feedback","0","test","25","","","","","","","","","","","",""
"","","","","","","","","","","","html-button-response","57","2.0.0","396044","6172cf92f2ea6613f717abb6","4","11","4860","","","","","","","","","<img src= ""rock_img/I_Pumice_10.jpg"" style=""width:8cm; height:7.609999999999999cm;""><p>What type of rock is this?</p>","5","class_response","0","test","26","Pegmatite","Pumice","10","false","6","8","","","","","",""
"","","","","","","","","","","","html-keyboard-response","58","2.0.0","396553","6172cf92f2ea6613f717abb6","4","11","null","","","","","","","","","<p style='font-size: 30px;'><strong>Okay</strong></p>","null","neutral_feedback","0","test","26","","","","","","","","","","","",""
"","","","","","","","","","","","html-button-response","59","2.0.0","398801","6172cf92f2ea6613f717abb6","4","11","2246","","","","","","","","","<img src= ""rock_img/I_Basalt_08.jpg"" style=""width:8cm; height:10.44cm;""><p>What type of rock is this?</p>","2","class_response","0","test","27","Diorite","Basalt","08","false","3","2","","","","","",""
"","","","","","","","","","","","html-keyboard-response","60","2.0.0","399309","6172cf92f2ea6613f717abb6","4","11","null","","","","","","","","","<p style='font-size: 30px;'><strong>Okay</strong></p>","null","neutral_feedback","0","test","27","","","","","","","","","","","",""
"","","","","","","","","","","","html-button-response","61","2.0.0","401141","6172cf92f2ea6613f717abb6","4","11","1831","","","","","","","","","<img src= ""rock_img/I_Peridotite_02.jpg"" style=""width:8cm; height:5.859999999999999cm;""><p>What type of rock is this?</p>","5","class_response","0","test","28","Pegmatite","Peridotite","02","false","6","7","","","","","",""
"","","","","","","","","","","","html-keyboard-response","62","2.0.0","401648","6172cf92f2ea6613f717abb6","4","11","null","","","","","","","","","<p style='font-size: 30px;'><strong>Okay</strong></p>","null","neutral_feedback","0","test","28","","","","","","","","","","","",""
"","","","","","","","","","","","html-button-response","63","2.0.0","405676","6172cf92f2ea6613f717abb6","4","11","4029","","","","","","","","","<img src= ""rock_img/I_Obsidian_05.jpg"" style=""width:8cm; height:6.33cm;""><p>What type of rock is this?</p>","4","class_response","0","test","29","Obsidian","Obsidian","05","true","5","5","","","","","",""
"","","","","","","","","","","","html-keyboard-response","64","2.0.0","406190","6172cf92f2ea6613f717abb6","4","11","null","","","","","","","","","<p style='font-size: 30px;'><strong>Okay</strong></p>","null","neutral_feedback","0","test","29","","","","","","","","","","","",""
"","","","","","","","","","","","html-button-response","65","2.0.0","408488","6172cf92f2ea6613f717abb6","4","11","2296","","","","","","","","","<img src= ""rock_img/I_Pegmatite_13.jpg"" style=""width:8cm; height:4.95cm;""><p>What type of rock is this?</p>","0","class_response","0","test","30","Andesite","Pegmatite","13","false","1","6","","","","","",""
"","","","","","","","","","","","html-keyboard-response","66","2.0.0","409002","6172cf92f2ea6613f717abb6","4","11","null","","","","","","","","","<p style='font-size: 30px;'><strong>Okay</strong></p>","null","neutral_feedback","0","test","30","","","","","","","","","","","",""
"","","","","","","","","","","","html-button-response","67","2.0.0","411665","6172cf92f2ea6613f717abb6","4","11","2661","","","","","","","","","<img src= ""rock_img/I_Obsidian_12.jpg"" style=""width:8cm; height:6.53cm;""><p>What type of rock is this?</p>","4","class_response","0","test","31","Obsidian","Obsidian","12","true","5","5","","","","","",""
"","","","","","","","","","","","html-keyboard-response","68","2.0.0","412179","6172cf92f2ea6613f717abb6","4","11","null","","","","","","","","","<p style='font-size: 30px;'><strong>Okay</strong></p>","null","neutral_feedback","0","test","31","","","","","","","","","","","",""
"","","","","","","","","","","","html-button-response","69","2.0.0","415857","6172cf92f2ea6613f717abb6","4","11","3676","","","","","","","","","<img src= ""rock_img/I_Diorite_14.jpg"" style=""width:8cm; height:5.71cm;""><p>What type of rock is this?</p>","5","class_response","0","test","32","Pegmatite","Diorite","14","false","6","3","","","","","",""
"","","","","","","","","","","","html-keyboard-response","70","2.0.0","416365","6172cf92f2ea6613f717abb6","4","11","null","","","","","","","","","<p style='font-size: 30px;'><strong>Okay</strong></p>","null","neutral_feedback","0","test","32","","","","","","","","","","","",""
"","","","","","","","","","","","html-button-response","71","2.0.0","427719","6172cf92f2ea6613f717abb6","4","11","11350","","","","","","","","","<img src= ""rock_img/I_Obsidian_09.jpg"" style=""width:8cm; height:5cm;""><p>What type of rock is this?</p>","6","class_response","0","test","33","Peridotite","Obsidian","09","false","7","5","","","","","",""
"","","","","","","","","","","","html-keyboard-response","72","2.0.0","428225","6172cf92f2ea6613f717abb6","4","11","null","","","","","","","","","<p style='font-size: 30px;'><strong>Okay</strong></p>","null","neutral_feedback","0","test","33","","","","","","","","","","","",""
"","","","","","","","","","","","html-button-response","73","2.0.0","431105","6172cf92f2ea6613f717abb6","4","11","2879","","","","","","","","","<img src= ""rock_img/I_Pumice_15.jpg"" style=""width:8cm; height:7.86cm;""><p>What type of rock is this?</p>","1","class_response","0","test","34","Basalt","Pumice","15","false","2","8","","","","","",""
"","","","","","","","","","","","html-keyboard-response","74","2.0.0","431610","6172cf92f2ea6613f717abb6","4","11","null","","","","","","","","","<p style='font-size: 30px;'><strong>Okay</strong></p>","null","neutral_feedback","0","test","34","","","","","","","","","","","",""
"","","","","","","","","","","","html-button-response","75","2.0.0","434384","6172cf92f2ea6613f717abb6","4","11","2772","","","","","","","","","<img src= ""rock_img/I_Obsidian_16.jpg"" style=""width:8cm; height:9.3cm;""><p>What type of rock is this?</p>","4","class_response","0","test","35","Obsidian","Obsidian","16","true","5","5","","","","","",""
"","","","","","","","","","","","html-keyboard-response","76","2.0.0","434888","6172cf92f2ea6613f717abb6","4","11","null","","","","","","","","","<p style='font-size: 30px;'><strong>Okay</strong></p>","null","neutral_feedback","0","test","35","","","","","","","","","","","",""
"","","","","","","","","","","","html-button-response","77","2.0.0","436983","6172cf92f2ea6613f717abb6","4","11","2093","","","","","","","","","<img src= ""rock_img/I_Diorite_08.jpg"" style=""width:8cm; height:6.37cm;""><p>What type of rock is this?</p>","2","class_response","0","test","36","Diorite","Diorite","08","true","3","3","","","","","",""
"","","","","","","","","","","","html-keyboard-response","78","2.0.0","437497","6172cf92f2ea6613f717abb6","4","11","null","","","","","","","","","<p style='font-size: 30px;'><strong>Okay</strong></p>","null","neutral_feedback","0","test","36","","","","","","","","","","","",""
"","","","","","","","","","","","html-button-response","79","2.0.0","441606","6172cf92f2ea6613f717abb6","4","11","4106","","","","","","","","","<img src= ""rock_img/I_Diorite_06.jpg"" style=""width:8cm; height:6.03cm;""><p>What type of rock is this?</p>","6","class_response","0","test","37","Peridotite","Diorite","06","false","7","3","","","","","",""
"","","","","","","","","","","","html-keyboard-response","80","2.0.0","442110","6172cf92f2ea6613f717abb6","4","11","null","","","","","","","","","<p style='font-size: 30px;'><strong>Okay</strong></p>","null","neutral_feedback","0","test","37","","","","","","","","","","","",""
"","","","","","","","","","","","html-button-response","81","2.0.0","444220","6172cf92f2ea6613f717abb6","4","11","2107","","","","","","","","","<img src= ""rock_img/I_Gabbro_11.jpg"" style=""width:8cm; height:6.2cm;""><p>What type of rock is this?</p>","7","class_response","0","test","38","Pumice","Gabbro","11","false","8","4","","","","","",""
"","","","","","","","","","","","html-keyboard-response","82","2.0.0","444738","6172cf92f2ea6613f717abb6","4","11","null","","","","","","","","","<p style='font-size: 30px;'><strong>Okay</strong></p>","null","neutral_feedback","0","test","38","","","","","","","","","","","",""
"","","","","","","","","","","","html-button-response","83","2.0.0","448643","6172cf92f2ea6613f717abb6","4","11","3903","","","","","","","","","<img src= ""rock_img/I_Pegmatite_10.jpg"" style=""width:8cm; height:4.16cm;""><p>What type of rock is this?</p>","4","class_response","0","test","39","Obsidian","Pegmatite","10","false","5","6","","","","","",""
"","","","","","","","","","","","html-keyboard-response","84","2.0.0","449149","6172cf92f2ea6613f717abb6","4","11","null","","","","","","","","","<p style='font-size: 30px;'><strong>Okay</strong></p>","null","neutral_feedback","0","test","39","","","","","","","","","","","",""
"","","","","","","","","","","","html-button-response","85","2.0.0","453360","6172cf92f2ea6613f717abb6","4","11","4209","","","","","","","","","<img src= ""rock_img/I_Andesite_03.jpg"" style=""width:8cm; height:5.73cm;""><p>What type of rock is this?</p>","1","class_response","0","test","40","Basalt","Andesite","03","false","2","1","","","","","",""
"","","","","","","","","","","","html-keyboard-response","86","2.0.0","453874","6172cf92f2ea6613f717abb6","4","11","null","","","","","","","","","<p style='font-size: 30px;'><strong>Okay</strong></p>","null","neutral_feedback","0","test","40","","","","","","","","","","","",""
"","","","","","","","","","","","html-button-response","87","2.0.0","455636","6172cf92f2ea6613f717abb6","4","11","1759","","","","","","","","","<img src= ""rock_img/I_Pumice_03.jpg"" style=""width:8cm; height:6.64cm;""><p>What type of rock is this?</p>","1","class_response","0","test","41","Basalt","Pumice","03","false","2","8","","","","","",""
"","","","","","","","","","","","html-keyboard-response","88","2.0.0","456140","6172cf92f2ea6613f717abb6","4","11","null","","","","","","","","","<p style='font-size: 30px;'><strong>Okay</strong></p>","null","neutral_feedback","0","test","41","","","","","","","","","","","",""
"","","","","","","","","","","","html-button-response","89","2.0.0","459612","6172cf92f2ea6613f717abb6","4","11","3470","","","","","","","","","<img src= ""rock_img/I_Peridotite_13.jpg"" style=""width:8cm; height:7.58cm;""><p>What type of rock is this?</p>","6","class_response","0","test","42","Peridotite","Peridotite","13","true","7","7","","","","","",""
"","","","","","","","","","","","html-keyboard-response","90","2.0.0","460121","6172cf92f2ea6613f717abb6","4","11","null","","","","","","","","","<p style='font-size: 30px;'><strong>Okay</strong></p>","null","neutral_feedback","0","test","42","","","","","","","","","","","",""
"","","","","","","","","","","","html-button-response","91","2.0.0","464013","6172cf92f2ea6613f717abb6","4","11","3891","","","","","","","","","<img src= ""rock_img/I_Andesite_05.jpg"" style=""width:8cm; height:4.12cm;""><p>What type of rock is this?</p>","2","class_response","0","test","43","Diorite","Andesite","05","false","3","1","","","","","",""
"","","","","","","","","","","","html-keyboard-response","92","2.0.0","464524","6172cf92f2ea6613f717abb6","4","11","null","","","","","","","","","<p style='font-size: 30px;'><strong>Okay</strong></p>","null","neutral_feedback","0","test","43","","","","","","","","","","","",""
"","","","","","","","","","","","html-button-response","93","2.0.0","469599","6172cf92f2ea6613f717abb6","4","11","5074","","","","","","","","","<img src= ""rock_img/I_Pumice_02.jpg"" style=""width:8cm; height:7.3999999999999995cm;""><p>What type of rock is this?</p>","6","class_response","0","test","44","Peridotite","Pumice","02","false","7","8","","","","","",""
"","","","","","","","","","","","html-keyboard-response","94","2.0.0","470110","6172cf92f2ea6613f717abb6","4","11","null","","","","","","","","","<p style='font-size: 30px;'><strong>Okay</strong></p>","null","neutral_feedback","0","test","44","","","","","","","","","","","",""
"","","","","","","","","","","","html-button-response","95","2.0.0","475483","6172cf92f2ea6613f717abb6","4","11","5372","","","","","","","","","<img src= ""rock_img/I_Peridotite_10.jpg"" style=""width:8cm; height:5.390000000000001cm;""><p>What type of rock is this?</p>","1","class_response","0","test","45","Basalt","Peridotite","10","false","2","7","","","","","",""
"","","","","","","","","","","","html-keyboard-response","96","2.0.0","475996","6172cf92f2ea6613f717abb6","4","11","null","","","","","","","","","<p style='font-size: 30px;'><strong>Okay</strong></p>","null","neutral_feedback","0","test","45","","","","","","","","","","","",""
"","","","","","","","","","","","html-button-response","97","2.0.0","484478","6172cf92f2ea6613f717abb6","4","11","8480","","","","","","","","","<img src= ""rock_img/I_Pumice_09.jpg"" style=""width:8cm; height:6.44cm;""><p>What type of rock is this?</p>","3","class_response","0","test","46","Gabbro","Pumice","09","false","4","8","","","","","",""
"","","","","","","","","","","","html-keyboard-response","98","2.0.0","484989","6172cf92f2ea6613f717abb6","4","11","null","","","","","","","","","<p style='font-size: 30px;'><strong>Okay</strong></p>","null","neutral_feedback","0","test","46","","","","","","","","","","","",""
"","","","","","","","","","","","html-button-response","99","2.0.0","505648","6172cf92f2ea6613f717abb6","4","11","20656","","","","","","","","","<img src= ""rock_img/I_Gabbro_16.jpg"" style=""width:8cm; height:6.44cm;""><p>What type of rock is this?</p>","2","class_response","0","test","47","Diorite","Gabbro","16","false","3","4","","","","","",""
"","","","","","","","","","","","html-keyboard-response","100","2.0.0","506156","6172cf92f2ea6613f717abb6","4","11","null","","","","","","","","","<p style='font-size: 30px;'><strong>Okay</strong></p>","null","neutral_feedback","0","test","47","","","","","","","","","","","",""
"","","","","","","","","","","","html-button-response","101","2.0.0","529171","6172cf92f2ea6613f717abb6","4","11","23015","","","","","","","","","<img src= ""rock_img/I_Gabbro_03.jpg"" style=""width:8cm; height:8.52cm;""><p>What type of rock is this?</p>","1","class_response","0","test","48","Basalt","Gabbro","03","false","2","4","","","","","",""
"","","","","","","","","","","","html-keyboard-response","102","2.0.0","529687","6172cf92f2ea6613f717abb6","4","11","null","","","","","","","","","<p style='font-size: 30px;'><strong>Okay</strong></p>","null","neutral_feedback","0","test","48","","","","","","","","","","","",""
"","","","","","","","","","","","instructions","103","2.0.0","582194","6172cf92f2ea6613f717abb6","4","11","52470","","","","","","","","[{""page_index"":0,""viewing_time"":41496},{""page_index"":1,""viewing_time"":10974}]","","","","","","","","","","","","","","","","","",""
"","","","","","","","","","","","html-button-response","104","2.0.0","593878","6172cf92f2ea6613f717abb6","4","11","11685","","","","","","","","","","0","start_train","","","","","","","","","","","","","","",""
"","","","","","","","","","","","html-button-response","106","2.0.0","597014","6172cf92f2ea6613f717abb6","4","11","3135","","","","","","","","","<img src= ""rock_img/I_Obsidian_02.jpg"" style=""width:8cm; height:7.51cm;""><p>What type of rock is this?</p>","4","class_response","1","train","1","Obsidian","Obsidian","02","true","5","5","","","","","",""
"","","","","","","","","","","","html-button-response","107","2.0.0","602834","6172cf92f2ea6613f717abb6","4","11","5818","","","","","","","","","<img src= rock_img/I_Obsidian_02.jpg style=""width:8cm; height:7.51cm;""><p style='font-size: 30px; color: green;'><strong>Correct!</strong></p><p style='font-size: 30px;'><strong>This rock is obsidian</strong></p>","0","corr_feedback","1","train","1","","","","","","","","","","","",""
"","","","","","","","","","","","html-button-response","108","2.0.0","608759","6172cf92f2ea6613f717abb6","4","11","5922","","","","","","","","","<img src= ""rock_img/I_Gabbro_12.jpg"" style=""width:8cm; height:7.800000000000001cm;""><p>What type of rock is this?</p>","0","class_response","1","train","2","Andesite","Gabbro","12","false","1","4","","","","","",""
"","","","","","","","","","","","html-button-response","109","2.0.0","614252","6172cf92f2ea6613f717abb6","4","11","5490","","","","","","","","","<img src= rock_img/I_Gabbro_12.jpg style=""width:8cm; height:7.800000000000001cm;""><p style='font-size: 30px; color: red;'><strong>Incorrect!</strong></p><p style='font-size: 30px;'><strong>This rock is gabbro</strong></p>","0","corr_feedback","1","train","2","","","","","","","","","","","",""
"","","","","","","","","","","","html-button-response","110","2.0.0","617884","6172cf92f2ea6613f717abb6","4","11","3630","","","","","","","","","<img src= ""rock_img/I_Pumice_13.jpg"" style=""width:8cm; height:8.200000000000001cm;""><p>What type of rock is this?</p>","6","class_response","1","train","3","Peridotite","Pumice","13","false","7","8","","","","","",""
"","","","","","","","","","","","html-button-response","111","2.0.0","625199","6172cf92f2ea6613f717abb6","4","11","7314","","","","","","","","","<img src= rock_img/I_Pumice_13.jpg style=""width:8cm; height:8.200000000000001cm;""><p style='font-size: 30px; color: red;'><strong>Incorrect!</strong></p><p style='font-size: 30px;'><strong>This rock is pumice</strong></p>","0","corr_feedback","1","train","3","","","","","","","","","","","",""
"","","","","","","","","","","","html-button-response","112","2.0.0","631910","6172cf92f2ea6613f717abb6","4","11","6709","","","","","","","","","<img src= ""rock_img/I_Pegmatite_05.jpg"" style=""width:8cm; height:7.300000000000001cm;""><p>What type of rock is this?</p>","5","class_response","1","train","4","Pegmatite","Pegmatite","05","true","6","6","","","","","",""
"","","","","","","","","","","","html-button-response","113","2.0.0","652970","6172cf92f2ea6613f717abb6","4","11","21058","","","","","","","","","<img src= rock_img/I_Pegmatite_05.jpg style=""width:8cm; height:7.300000000000001cm;""><p style='font-size: 30px; color: green;'><strong>Correct!</strong></p><p style='font-size: 30px;'><strong>This rock is pegmatite</strong></p>","0","corr_feedback","1","train","4","","","","","","","","","","","",""
"","","","","","","","","","","","html-button-response","114","2.0.0","659315","6172cf92f2ea6613f717abb6","4","11","6344","","","","","","","","","<img src= ""rock_img/I_Obsidian_10.jpg"" style=""width:8cm; height:6.260000000000001cm;""><p>What type of rock is this?</p>","4","class_response","1","train","5","Obsidian","Obsidian","10","true","5","5","","","","","",""
"","","","","","","","","","","","html-button-response","115","2.0.0","662333","6172cf92f2ea6613f717abb6","4","11","3015","","","","","","","","","<img src= rock_img/I_Obsidian_10.jpg style=""width:8cm; height:6.260000000000001cm;""><p style='font-size: 30px; color: green;'><strong>Correct!</strong></p><p style='font-size: 30px;'><strong>This rock is obsidian</strong></p>","0","corr_feedback","1","train","5","","","","","","","","","","","",""
"","","","","","","","","","","","html-button-response","116","2.0.0","666297","6172cf92f2ea6613f717abb6","4","11","3961","","","","","","","","","<img src= ""rock_img/I_Peridotite_04.jpg"" style=""width:8cm; height:6.680000000000001cm;""><p>What type of rock is this?</p>","3","class_response","1","train","6","Gabbro","Peridotite","04","false","4","7","","","","","",""
"","","","","","","","","","","","html-button-response","117","2.0.0","671011","6172cf92f2ea6613f717abb6","4","11","4713","","","","","","","","","<img src= rock_img/I_Peridotite_04.jpg style=""width:8cm; height:6.680000000000001cm;""><p style='font-size: 30px; color: red;'><strong>Incorrect!</strong></p><p style='font-size: 30px;'><strong>This rock is peridotite</strong></p>","0","corr_feedback","1","train","6","","","","","","","","","","","",""
"","","","","","","","","","","","html-button-response","118","2.0.0","675983","6172cf92f2ea6613f717abb6","4","11","4970","","","","","","","","","<img src= ""rock_img/I_Basalt_01.jpg"" style=""width:8cm; height:7.880000000000001cm;""><p>What type of rock is this?</p>","3","class_response","1","train","7","Gabbro","Basalt","01","false","4","2","","","","","",""
"","","","","","","","","","","","html-button-response","119","2.0.0","679315","6172cf92f2ea6613f717abb6","4","11","3330","","","","","","","","","<img src= rock_img/I_Basalt_01.jpg style=""width:8cm; height:7.880000000000001cm;""><p style='font-size: 30px; color: red;'><strong>Incorrect!</strong></p><p style='font-size: 30px;'><strong>This rock is basalt</strong></p>","0","corr_feedback","1","train","7","","","","","","","","","","","",""
"","","","","","","","","","","","html-button-response","120","2.0.0","725766","6172cf92f2ea6613f717abb6","4","11","46453","","","","","","","","","<img src= ""rock_img/I_Diorite_02.jpg"" style=""width:8cm; height:6.27cm;""><p>What type of rock is this?</p>","5","class_response","1","train","8","Pegmatite","Diorite","02","false","6","3","","","","","",""
"","","","","","","","","","","","html-button-response","121","2.0.0","728988","6172cf92f2ea6613f717abb6","4","11","3219","","","","","","","","","<img src= rock_img/I_Diorite_02.jpg style=""width:8cm; height:6.27cm;""><p style='font-size: 30px; color: red;'><strong>Incorrect!</strong></p><p style='font-size: 30px;'><strong>This rock is diorite</strong></p>","0","corr_feedback","1","train","8","","","","","","","","","","","",""
"","","","","","","","","","","","html-button-response","122","2.0.0","732559","6172cf92f2ea6613f717abb6","4","11","3569","","","","","","","","","<img src= ""rock_img/I_Pumice_08.jpg"" style=""width:8cm; height:6.67cm;""><p>What type of rock is this?</p>","3","class_response","1","train","9","Gabbro","Pumice","08","false","4","8","","","","","",""
"","","","","","","","","","","","html-button-response","123","2.0.0","735459","6172cf92f2ea6613f717abb6","4","11","2897","","","","","","","","","<img src= rock_img/I_Pumice_08.jpg style=""width:8cm; height:6.67cm;""><p style='font-size: 30px; color: red;'><strong>Incorrect!</strong></p><p style='font-size: 30px;'><strong>This rock is pumice</strong></p>","0","corr_feedback","1","train","9","","","","","","","","","","","",""
"","","","","","","","","","","","html-button-response","124","2.0.0","739996","6172cf92f2ea6613f717abb6","4","11","4535","","","","","","","","","<img src= ""rock_img/I_Gabbro_01.jpg"" style=""width:8cm; height:5.21cm;""><p>What type of rock is this?</p>","5","class_response","1","train","10","Pegmatite","Gabbro","01","false","6","4","","","","","",""
"","","","","","","","","","","","html-button-response","125","2.0.0","742720","6172cf92f2ea6613f717abb6","4","11","2723","","","","","","","","","<img src= rock_img/I_Gabbro_01.jpg style=""width:8cm; height:5.21cm;""><p style='font-size: 30px; color: red;'><strong>Incorrect!</strong></p><p style='font-size: 30px;'><strong>This rock is gabbro</strong></p>","0","corr_feedback","1","train","10","","","","","","","","","","","",""
"","","","","","","","","","","","html-button-response","126","2.0.0","748187","6172cf92f2ea6613f717abb6","4","11","5464","","","","","","","","","<img src= ""rock_img/I_Diorite_09.jpg"" style=""width:8cm; height:5.27cm;""><p>What type of rock is this?</p>","6","class_response","1","train","11","Peridotite","Diorite","09","false","7","3","","","","","",""
"","","","","","","","","","","","html-button-response","127","2.0.0","750502","6172cf92f2ea6613f717abb6","4","11","2313","","","","","","","","","<img src= rock_img/I_Diorite_09.jpg style=""width:8cm; height:5.27cm;""><p style='font-size: 30px; color: red;'><strong>Incorrect!</strong></p><p style='font-size: 30px;'><strong>This rock is diorite</strong></p>","0","corr_feedback","1","train","11","","","","","","","","","","","",""
"","","","","","","","","","","","html-button-response","128","2.0.0","758678","6172cf92f2ea6613f717abb6","4","11","8173","","","","","","","","","<img src= ""rock_img/I_Andesite_07.jpg"" style=""width:8cm; height:5.93cm;""><p>What type of rock is this?</p>","2","class_response","1","train","12","Diorite","Andesite","07","false","3","1","","","","","",""
"","","","","","","","","","","","html-button-response","129","2.0.0","773183","6172cf92f2ea6613f717abb6","4","11","14503","","","","","","","","","<img src= rock_img/I_Andesite_07.jpg style=""width:8cm; height:5.93cm;""><p style='font-size: 30px; color: red;'><strong>Incorrect!</strong></p><p style='font-size: 30px;'><strong>This rock is andesite</strong></p>","0","corr_feedback","1","train","12","","","","","","","","","","","",""
"","","","","","","","","","","","instructions","130","2.0.0","948540","6172cf92f2ea6613f717abb6","4","11","175363","","","","","","","","[{""page_index"":0,""viewing_time"":35548},{""page_index"":1,""viewing_time"":65376},{""page_index"":2,""viewing_time"":53590},{""page_index"":3,""viewing_time"":20848}]","","","","","","","","","","","","","","","","","",""
"","","","","","","","","","","","html-button-response","131","2.0.0","951929","6172cf92f2ea6613f717abb6","4","11","3387","","","","","","","","","","0","start_train","","","","","","","","","","","","","","",""
"","","","","","","","","","","","html-button-response","132","2.0.0","982712","6172cf92f2ea6613f717abb6","4","11","","","","","","","","","","","","cat_selection","1","train","1","","","","","","","14551.900000035763","16228.099999964237","3","6","",""
