"width","height","webaudio","browser","browser_version","mobile","os","fullscreen","vsync_rate","webcam","microphone","trial_type","trial_index","plugin_version","time_elapsed","subjID","condition","stimID","rt","url","success","value","timeout","failed_images","failed_audio","failed_video","view_history","stimulus","response","trialType","cycle","phase","trial","resp","cat","token","corr","resp_num","cat_num"
"1324","730","true","chrome","131.0.0","false","Windows 10","true","57.24","true","true","browser-check","0","2.0.0","1061","665dd4ef9ba81d499d675de5","2","53","","","","","","","","","","","","","","","","","","","","",""
"","","","","","","","","","","","external-html","1","2.0.0","7605","665dd4ef9ba81d499d675de5","2","53","6046","consent_form.html","","","","","","","","","","","","","","","","","","",""
"","","","","","","","","","","","fullscreen","2","2.0.0","221098","665dd4ef9ba81d499d675de5","2","53","212490","","true","","","","","","","","","","","","","","","","","",""
"","","","","","","","","","","","call-function","3","2.0.0","221100","665dd4ef9ba81d499d675de5","2","53","","","","{}","","","","","","","","","","","","","","","","",""
"","","","","","","","","","","","preload","4","2.0.0","232142","665dd4ef9ba81d499d675de5","2","53","","","true","","false","[]","[]","[]","","","","","","","","","","","","",""
"","","","","","","","","","","","instructions","5","2.0.0","267763","665dd4ef9ba81d499d675de5","2","53","35620","","","","","","","","[{""page_index"":0,""viewing_time"":2053},{""page_index"":1,""viewing_time"":26089},{""page_index"":2,""viewing_time"":7478}]","","","","","","","","","","","",""
"","","","","","","","","","","","html-button-response","6","2.0.0","269409","665dd4ef9ba81d499d675de5","2","53","1643","","","","","","","","","","0","start_test","","","","","","","","",""
"","","","","","","","","","","","html-button-response","7","2.0.0","272950","665dd4ef9ba81d499d675de5","2","53","3539","","","","","","","","","<img src= ""rock_img/I_Andesite_14.jpg"" style=""width:8cm; height:5.449999999999999cm;""><p>What type of rock is this?</p>","6","class_response","0","test","1","Peridotite","Andesite","14","false","7","1"
"","","","","","","","","","","","html-keyboard-response","8","2.0.0","273454","665dd4ef9ba81d499d675de5","2","53","null","","","","","","","","","<p style='font-size: 30px;'><strong>Okay</strong></p>","null","neutral_feedback","0","test","1","","","","","",""
"","","","","","","","","","","","html-button-response","9","2.0.0","279939","665dd4ef9ba81d499d675de5","2","53","6482","","","","","","","","","<img src= ""rock_img/I_Obsidian_14.jpg"" style=""width:8cm; height:7.64cm;""><p>What type of rock is this?</p>","4","class_response","0","test","2","Obsidian","Obsidian","14","true","5","5"
"","","","","","","","","","","","html-keyboard-response","10","2.0.0","280441","665dd4ef9ba81d499d675de5","2","53","null","","","","","","","","","<p style='font-size: 30px;'><strong>Okay</strong></p>","null","neutral_feedback","0","test","2","","","","","",""
"","","","","","","","","","","","html-button-response","11","2.0.0","288259","665dd4ef9ba81d499d675de5","2","53","7816","","","","","","","","","<img src= ""rock_img/I_Basalt_11.jpg"" style=""width:8cm; height:5.359999999999999cm;""><p>What type of rock is this?</p>","6","class_response","0","test","3","Peridotite","Basalt","11","false","7","2"
"","","","","","","","","","","","html-keyboard-response","12","2.0.0","288761","665dd4ef9ba81d499d675de5","2","53","null","","","","","","","","","<p style='font-size: 30px;'><strong>Okay</strong></p>","null","neutral_feedback","0","test","3","","","","","",""
"","","","","","","","","","","","html-button-response","13","2.0.0","299540","665dd4ef9ba81d499d675de5","2","53","10778","","","","","","","","","<img src= ""rock_img/I_Pumice_09.jpg"" style=""width:8cm; height:6.44cm;""><p>What type of rock is this?</p>","0","class_response","0","test","4","Andesite","Pumice","09","false","1","8"
"","","","","","","","","","","","html-keyboard-response","14","2.0.0","300042","665dd4ef9ba81d499d675de5","2","53","null","","","","","","","","","<p style='font-size: 30px;'><strong>Okay</strong></p>","null","neutral_feedback","0","test","4","","","","","",""
"","","","","","","","","","","","html-button-response","15","2.0.0","301838","665dd4ef9ba81d499d675de5","2","53","1795","","","","","","","","","<img src= ""rock_img/I_Diorite_09.jpg"" style=""width:8cm; height:5.27cm;""><p>What type of rock is this?</p>","0","class_response","0","test","5","Andesite","Diorite","09","false","1","3"
"","","","","","","","","","","","html-keyboard-response","16","2.0.0","302340","665dd4ef9ba81d499d675de5","2","53","null","","","","","","","","","<p style='font-size: 30px;'><strong>Okay</strong></p>","null","neutral_feedback","0","test","5","","","","","",""
"","","","","","","","","","","","html-button-response","17","2.0.0","303340","665dd4ef9ba81d499d675de5","2","53","999","","","","","","","","","<img src= ""rock_img/I_Obsidian_05.jpg"" style=""width:8cm; height:6.33cm;""><p>What type of rock is this?</p>","5","class_response","0","test","6","Pegmatite","Obsidian","05","false","6","5"
"","","","","","","","","","","","html-keyboard-response","18","2.0.0","303842","665dd4ef9ba81d499d675de5","2","53","null","","","","","","","","","<p style='font-size: 30px;'><strong>Okay</strong></p>","null","neutral_feedback","0","test","6","","","","","",""
"","","","","","","","","","","","html-button-response","19","2.0.0","306033","665dd4ef9ba81d499d675de5","2","53","2190","","","","","","","","","<img src= ""rock_img/I_Diorite_10.jpg"" style=""width:8cm; height:5.949999999999999cm;""><p>What type of rock is this?</p>","1","class_response","0","test","7","Basalt","Diorite","10","false","2","3"
"","","","","","","","","","","","html-keyboard-response","20","2.0.0","306535","665dd4ef9ba81d499d675de5","2","53","null","","","","","","","","","<p style='font-size: 30px;'><strong>Okay</strong></p>","null","neutral_feedback","0","test","7","","","","","",""
"","","","","","","","","","","","html-button-response","21","2.0.0","349890","665dd4ef9ba81d499d675de5","2","53","43353","","","","","","","","","<img src= ""rock_img/I_Basalt_04.jpg"" style=""width:8cm; height:7.53cm;""><p>What type of rock is this?</p>","3","class_response","0","test","8","Gabbro","Basalt","04","false","4","2"
"","","","","","","","","","","","html-keyboard-response","22","2.0.0","350392","665dd4ef9ba81d499d675de5","2","53","null","","","","","","","","","<p style='font-size: 30px;'><strong>Okay</strong></p>","null","neutral_feedback","0","test","8","","","","","",""
"","","","","","","","","","","","html-button-response","23","2.0.0","351647","665dd4ef9ba81d499d675de5","2","53","1254","","","","","","","","","<img src= ""rock_img/I_Peridotite_16.jpg"" style=""width:8cm; height:6.989999999999999cm;""><p>What type of rock is this?</p>","0","class_response","0","test","9","Andesite","Peridotite","16","false","1","7"
"","","","","","","","","","","","html-keyboard-response","24","2.0.0","352148","665dd4ef9ba81d499d675de5","2","53","null","","","","","","","","","<p style='font-size: 30px;'><strong>Okay</strong></p>","null","neutral_feedback","0","test","9","","","","","",""
"","","","","","","","","","","","html-button-response","25","2.0.0","356455","665dd4ef9ba81d499d675de5","2","53","4306","","","","","","","","","<img src= ""rock_img/I_Pegmatite_09.jpg"" style=""width:8cm; height:4.03cm;""><p>What type of rock is this?</p>","0","class_response","0","test","10","Andesite","Pegmatite","09","false","1","6"
"","","","","","","","","","","","html-keyboard-response","26","2.0.0","356957","665dd4ef9ba81d499d675de5","2","53","null","","","","","","","","","<p style='font-size: 30px;'><strong>Okay</strong></p>","null","neutral_feedback","0","test","10","","","","","",""
"","","","","","","","","","","","html-button-response","27","2.0.0","358820","665dd4ef9ba81d499d675de5","2","53","1861","","","","","","","","","<img src= ""rock_img/I_Andesite_16.jpg"" style=""width:8cm; height:6.010000000000001cm;""><p>What type of rock is this?</p>","1","class_response","0","test","11","Basalt","Andesite","16","false","2","1"
"","","","","","","","","","","","html-keyboard-response","28","2.0.0","359323","665dd4ef9ba81d499d675de5","2","53","null","","","","","","","","","<p style='font-size: 30px;'><strong>Okay</strong></p>","null","neutral_feedback","0","test","11","","","","","",""
"","","","","","","","","","","","html-button-response","29","2.0.0","360597","665dd4ef9ba81d499d675de5","2","53","1273","","","","","","","","","<img src= ""rock_img/I_Obsidian_02.jpg"" style=""width:8cm; height:7.51cm;""><p>What type of rock is this?</p>","5","class_response","0","test","12","Pegmatite","Obsidian","02","false","6","5"
"","","","","","","","","","","","html-keyboard-response","30","2.0.0","361099","665dd4ef9ba81d499d675de5","2","53","null","","","","","","","","","<p style='font-size: 30px;'><strong>Okay</strong></p>","null","neutral_feedback","0","test","12","","","","","",""
"","","","","","","","","","","","html-button-response","31","2.0.0","362826","665dd4ef9ba81d499d675de5","2","53","1725","","","","","","","","","<img src= ""rock_img/I_Obsidian_11.jpg"" style=""width:8cm; height:6.05cm;""><p>What type of rock is this?</p>","4","class_response","0","test","13","Obsidian","Obsidian","11","true","5","5"
"","","","","","","","","","","","html-keyboard-response","32","2.0.0","363338","665dd4ef9ba81d499d675de5","2","53","null","","","","","","","","","<p style='font-size: 30px;'><strong>Okay</strong></p>","null","neutral_feedback","0","test","13","","","","","",""
"","","","","","","","","","","","html-button-response","33","2.0.0","365004","665dd4ef9ba81d499d675de5","2","53","1664","","","","","","","","","<img src= ""rock_img/I_Andesite_03.jpg"" style=""width:8cm; height:5.73cm;""><p>What type of rock is this?</p>","2","class_response","0","test","14","Diorite","Andesite","03","false","3","1"
"","","","","","","","","","","","html-keyboard-response","34","2.0.0","365507","665dd4ef9ba81d499d675de5","2","53","null","","","","","","","","","<p style='font-size: 30px;'><strong>Okay</strong></p>","null","neutral_feedback","0","test","14","","","","","",""
"","","","","","","","","","","","html-button-response","35","2.0.0","366449","665dd4ef9ba81d499d675de5","2","53","941","","","","","","","","","<img src= ""rock_img/I_Diorite_16.jpg"" style=""width:8cm; height:6.74cm;""><p>What type of rock is this?</p>","4","class_response","0","test","15","Obsidian","Diorite","16","false","5","3"
"","","","","","","","","","","","html-keyboard-response","36","2.0.0","366952","665dd4ef9ba81d499d675de5","2","53","null","","","","","","","","","<p style='font-size: 30px;'><strong>Okay</strong></p>","null","neutral_feedback","0","test","15","","","","","",""
"","","","","","","","","","","","html-button-response","37","2.0.0","368070","665dd4ef9ba81d499d675de5","2","53","1117","","","","","","","","","<img src= ""rock_img/I_Diorite_08.jpg"" style=""width:8cm; height:6.37cm;""><p>What type of rock is this?</p>","3","class_response","0","test","16","Gabbro","Diorite","08","false","4","3"
"","","","","","","","","","","","html-keyboard-response","38","2.0.0","368573","665dd4ef9ba81d499d675de5","2","53","null","","","","","","","","","<p style='font-size: 30px;'><strong>Okay</strong></p>","null","neutral_feedback","0","test","16","","","","","",""
"","","","","","","","","","","","html-button-response","39","2.0.0","369870","665dd4ef9ba81d499d675de5","2","53","1296","","","","","","","","","<img src= ""rock_img/I_Pumice_13.jpg"" style=""width:8cm; height:8.200000000000001cm;""><p>What type of rock is this?</p>","4","class_response","0","test","17","Obsidian","Pumice","13","false","5","8"
"","","","","","","","","","","","html-keyboard-response","40","2.0.0","370372","665dd4ef9ba81d499d675de5","2","53","null","","","","","","","","","<p style='font-size: 30px;'><strong>Okay</strong></p>","null","neutral_feedback","0","test","17","","","","","",""
"","","","","","","","","","","","html-button-response","41","2.0.0","371569","665dd4ef9ba81d499d675de5","2","53","1196","","","","","","","","","<img src= ""rock_img/I_Peridotite_05.jpg"" style=""width:8cm; height:7.1499999999999995cm;""><p>What type of rock is this?</p>","5","class_response","0","test","18","Pegmatite","Peridotite","05","false","6","7"
"","","","","","","","","","","","html-keyboard-response","42","2.0.0","372070","665dd4ef9ba81d499d675de5","2","53","null","","","","","","","","","<p style='font-size: 30px;'><strong>Okay</strong></p>","null","neutral_feedback","0","test","18","","","","","",""
"","","","","","","","","","","","html-button-response","43","2.0.0","372739","665dd4ef9ba81d499d675de5","2","53","667","","","","","","","","","<img src= ""rock_img/I_Diorite_02.jpg"" style=""width:8cm; height:6.27cm;""><p>What type of rock is this?</p>","3","class_response","0","test","19","Gabbro","Diorite","02","false","4","3"
"","","","","","","","","","","","html-keyboard-response","44","2.0.0","373241","665dd4ef9ba81d499d675de5","2","53","null","","","","","","","","","<p style='font-size: 30px;'><strong>Okay</strong></p>","null","neutral_feedback","0","test","19","","","","","",""
"","","","","","","","","","","","html-button-response","45","2.0.0","374436","665dd4ef9ba81d499d675de5","2","53","1194","","","","","","","","","<img src= ""rock_img/I_Pumice_10.jpg"" style=""width:8cm; height:7.609999999999999cm;""><p>What type of rock is this?</p>","0","class_response","0","test","20","Andesite","Pumice","10","false","1","8"
"","","","","","","","","","","","html-keyboard-response","46","2.0.0","374938","665dd4ef9ba81d499d675de5","2","53","null","","","","","","","","","<p style='font-size: 30px;'><strong>Okay</strong></p>","null","neutral_feedback","0","test","20","","","","","",""
"","","","","","","","","","","","html-button-response","47","2.0.0","375905","665dd4ef9ba81d499d675de5","2","53","966","","","","","","","","","<img src= ""rock_img/I_Peridotite_06.jpg"" style=""width:8cm; height:7.53cm;""><p>What type of rock is this?</p>","5","class_response","0","test","21","Pegmatite","Peridotite","06","false","6","7"
"","","","","","","","","","","","html-keyboard-response","48","2.0.0","376407","665dd4ef9ba81d499d675de5","2","53","null","","","","","","","","","<p style='font-size: 30px;'><strong>Okay</strong></p>","null","neutral_feedback","0","test","21","","","","","",""
"","","","","","","","","","","","html-button-response","49","2.0.0","377357","665dd4ef9ba81d499d675de5","2","53","948","","","","","","","","","<img src= ""rock_img/I_Gabbro_15.jpg"" style=""width:8cm; height:6.29cm;""><p>What type of rock is this?</p>","2","class_response","0","test","22","Diorite","Gabbro","15","false","3","4"
"","","","","","","","","","","","html-keyboard-response","50","2.0.0","377859","665dd4ef9ba81d499d675de5","2","53","null","","","","","","","","","<p style='font-size: 30px;'><strong>Okay</strong></p>","null","neutral_feedback","0","test","22","","","","","",""
"","","","","","","","","","","","html-button-response","51","2.0.0","378438","665dd4ef9ba81d499d675de5","2","53","577","","","","","","","","","<img src= ""rock_img/I_Basalt_14.jpg"" style=""width:8cm; height:5.82cm;""><p>What type of rock is this?</p>","7","class_response","0","test","23","Pumice","Basalt","14","false","8","2"
"","","","","","","","","","","","html-keyboard-response","52","2.0.0","378939","665dd4ef9ba81d499d675de5","2","53","null","","","","","","","","","<p style='font-size: 30px;'><strong>Okay</strong></p>","null","neutral_feedback","0","test","23","","","","","",""
"","","","","","","","","","","","html-button-response","53","2.0.0","379665","665dd4ef9ba81d499d675de5","2","53","725","","","","","","","","","<img src= ""rock_img/I_Pumice_16.jpg"" style=""width:8cm; height:6.79cm;""><p>What type of rock is this?</p>","0","class_response","0","test","24","Andesite","Pumice","16","false","1","8"
"","","","","","","","","","","","html-keyboard-response","54","2.0.0","380166","665dd4ef9ba81d499d675de5","2","53","null","","","","","","","","","<p style='font-size: 30px;'><strong>Okay</strong></p>","null","neutral_feedback","0","test","24","","","","","",""
"","","","","","","","","","","","html-button-response","55","2.0.0","380695","665dd4ef9ba81d499d675de5","2","53","528","","","","","","","","","<img src= ""rock_img/I_Gabbro_16.jpg"" style=""width:8cm; height:6.44cm;""><p>What type of rock is this?</p>","5","class_response","0","test","25","Pegmatite","Gabbro","16","false","6","4"
"","","","","","","","","","","","html-keyboard-response","56","2.0.0","381196","665dd4ef9ba81d499d675de5","2","53","null","","","","","","","","","<p style='font-size: 30px;'><strong>Okay</strong></p>","null","neutral_feedback","0","test","25","","","","","",""
