"width","height","webaudio","browser","browser_version","mobile","os","fullscreen","vsync_rate","webcam","microphone","trial_type","trial_index","plugin_version","time_elapsed","subjID","condition","stimID","rt","url","success","value","timeout","failed_images","failed_audio","failed_video","view_history","stimulus","response","trialType","cycle","phase","trial","resp","cat","token","corr","resp_num","cat_num","rt_ref","rt_paired","ref_cat_num","paired_cat_num","ref_cat","paired_cat","text_Gabbro","text_Andesite","time_obs","time_resp"
"2552","1314","true","edge-chromium","131.0.0","false","Windows 10","true","162.95","false","true","browser-check","0","2.0.0","375","66d7b253c64eb18aa549d79c","4","24","","","","","","","","","","","","","","","","","","","","","","","","","","","","","","",""
"","","","","","","","","","","","external-html","1","2.0.0","15470","66d7b253c64eb18aa549d79c","4","24","15033","consent_form.html","","","","","","","","","","","","","","","","","","","","","","","","","","","","",""
"","","","","","","","","","","","fullscreen","2","2.0.0","19476","66d7b253c64eb18aa549d79c","4","24","3000","","true","","","","","","","","","","","","","","","","","","","","","","","","","","","",""
"","","","","","","","","","","","call-function","3","2.0.0","19478","66d7b253c64eb18aa549d79c","4","24","","","","{}","","","","","","","","","","","","","","","","","","","","","","","","","","",""
"","","","","","","","","","","","preload","4","2.0.0","20695","66d7b253c64eb18aa549d79c","4","24","","","true","","false","[]","[]","[]","","","","","","","","","","","","","","","","","","","","","","",""
"","","","","","","","","","","","instructions","5","2.0.0","52726","66d7b253c64eb18aa549d79c","4","24","32030","","","","","","","","[{""page_index"":0,""viewing_time"":7148},{""page_index"":1,""viewing_time"":14630},{""page_index"":2,""viewing_time"":10251}]","","","","","","","","","","","","","","","","","","","","","",""
"","","","","","","","","","","","html-button-response","6","2.0.0","55543","66d7b253c64eb18aa549d79c","4","24","2816","","","","","","","","","","0","start_test","","","","","","","","","","","","","","","","","","",""
"","","","","","","","","","","","html-button-response","7","2.0.0","61923","66d7b253c64eb18aa549d79c","4","24","6379","","","","","","","","","<img src= ""rock_img/I_Pegmatite_03.jpg"" style=""width:8cm; height:5.239999999999999cm;""><p>What type of rock is this?</p>","5","class_response","0","test","1","Pegmatite","Pegmatite","03","true","6","6","","","","","","","","","",""
"","","","","","","","","","","","html-keyboard-response","8","2.0.0","62437","66d7b253c64eb18aa549d79c","4","24","null","","","","","","","","","<p style='font-size: 30px;'><strong>Okay</strong></p>","null","neutral_feedback","0","test","1","","","","","","","","","","","","","","","",""
"","","","","","","","","","","","html-button-response","9","2.0.0","68836","66d7b253c64eb18aa549d79c","4","24","6397","","","","","","","","","<img src= ""rock_img/I_Peridotite_02.jpg"" style=""width:8cm; height:5.859999999999999cm;""><p>What type of rock is this?</p>","5","class_response","0","test","2","Pegmatite","Peridotite","02","false","6","7","","","","","","","","","",""
"","","","","","","","","","","","html-keyboard-response","10","2.0.0","69349","66d7b253c64eb18aa549d79c","4","24","null","","","","","","","","","<p style='font-size: 30px;'><strong>Okay</strong></p>","null","neutral_feedback","0","test","2","","","","","","","","","","","","","","","",""
"","","","","","","","","","","","html-button-response","11","2.0.0","74560","66d7b253c64eb18aa549d79c","4","24","5208","","","","","","","","","<img src= ""rock_img/I_Obsidian_07.jpg"" style=""width:8cm; height:4.76cm;""><p>What type of rock is this?</p>","4","class_response","0","test","3","Obsidian","Obsidian","07","true","5","5","","","","","","","","","",""
"","","","","","","","","","","","html-keyboard-response","12","2.0.0","75062","66d7b253c64eb18aa549d79c","4","24","null","","","","","","","","","<p style='font-size: 30px;'><strong>Okay</strong></p>","null","neutral_feedback","0","test","3","","","","","","","","","","","","","","","",""
"","","","","","","","","","","","html-button-response","13","2.0.0","79861","66d7b253c64eb18aa549d79c","4","24","4798","","","","","","","","","<img src= ""rock_img/I_Gabbro_13.jpg"" style=""width:8cm; height:5.08cm;""><p>What type of rock is this?</p>","6","class_response","0","test","4","Peridotite","Gabbro","13","false","7","4","","","","","","","","","",""
"","","","","","","","","","","","html-keyboard-response","14","2.0.0","80366","66d7b253c64eb18aa549d79c","4","24","null","","","","","","","","","<p style='font-size: 30px;'><strong>Okay</strong></p>","null","neutral_feedback","0","test","4","","","","","","","","","","","","","","","",""
"","","","","","","","","","","","html-button-response","15","2.0.0","82334","66d7b253c64eb18aa549d79c","4","24","1967","","","","","","","","","<img src= ""rock_img/I_Gabbro_11.jpg"" style=""width:8cm; height:6.2cm;""><p>What type of rock is this?</p>","7","class_response","0","test","5","Pumice","Gabbro","11","false","8","4","","","","","","","","","",""
"","","","","","","","","","","","html-keyboard-response","16","2.0.0","82836","66d7b253c64eb18aa549d79c","4","24","null","","","","","","","","","<p style='font-size: 30px;'><strong>Okay</strong></p>","null","neutral_feedback","0","test","5","","","","","","","","","","","","","","","",""
"","","","","","","","","","","","html-button-response","17","2.0.0","86925","66d7b253c64eb18aa549d79c","4","24","4088","","","","","","","","","<img src= ""rock_img/I_Basalt_06.jpg"" style=""width:8cm; height:7.06cm;""><p>What type of rock is this?</p>","3","class_response","0","test","6","Gabbro","Basalt","06","false","4","2","","","","","","","","","",""
"","","","","","","","","","","","html-keyboard-response","18","2.0.0","87428","66d7b253c64eb18aa549d79c","4","24","null","","","","","","","","","<p style='font-size: 30px;'><strong>Okay</strong></p>","null","neutral_feedback","0","test","6","","","","","","","","","","","","","","","",""
"","","","","","","","","","","","html-button-response","19","2.0.0","88477","66d7b253c64eb18aa549d79c","4","24","1048","","","","","","","","","<img src= ""rock_img/I_Diorite_11.jpg"" style=""width:8cm; height:7.11cm;""><p>What type of rock is this?</p>","2","class_response","0","test","7","Diorite","Diorite","11","true","3","3","","","","","","","","","",""
"","","","","","","","","","","","html-keyboard-response","20","2.0.0","88980","66d7b253c64eb18aa549d79c","4","24","null","","","","","","","","","<p style='font-size: 30px;'><strong>Okay</strong></p>","null","neutral_feedback","0","test","7","","","","","","","","","","","","","","","",""
"","","","","","","","","","","","html-button-response","21","2.0.0","90263","66d7b253c64eb18aa549d79c","4","24","1282","","","","","","","","","<img src= ""rock_img/I_Basalt_16.jpg"" style=""width:8cm; height:7.659999999999999cm;""><p>What type of rock is this?</p>","1","class_response","0","test","8","Basalt","Basalt","16","true","2","2","","","","","","","","","",""
"","","","","","","","","","","","html-keyboard-response","22","2.0.0","90769","66d7b253c64eb18aa549d79c","4","24","null","","","","","","","","","<p style='font-size: 30px;'><strong>Okay</strong></p>","null","neutral_feedback","0","test","8","","","","","","","","","","","","","","","",""
"","","","","","","","","","","","html-button-response","23","2.0.0","92162","66d7b253c64eb18aa549d79c","4","24","1391","","","","","","","","","<img src= ""rock_img/I_Pegmatite_16.jpg"" style=""width:8cm; height:5.8cm;""><p>What type of rock is this?</p>","0","class_response","0","test","9","Andesite","Pegmatite","16","false","1","6","","","","","","","","","",""
"","","","","","","","","","","","html-keyboard-response","24","2.0.0","92672","66d7b253c64eb18aa549d79c","4","24","null","","","","","","","","","<p style='font-size: 30px;'><strong>Okay</strong></p>","null","neutral_feedback","0","test","9","","","","","","","","","","","","","","","",""
"","","","","","","","","","","","html-button-response","25","2.0.0","93641","66d7b253c64eb18aa549d79c","4","24","968","","","","","","","","","<img src= ""rock_img/I_Gabbro_14.jpg"" style=""width:8cm; height:8.48cm;""><p>What type of rock is this?</p>","1","class_response","0","test","10","Basalt","Gabbro","14","false","2","4","","","","","","","","","",""
"","","","","","","","","","","","html-keyboard-response","26","2.0.0","94152","66d7b253c64eb18aa549d79c","4","24","null","","","","","","","","","<p style='font-size: 30px;'><strong>Okay</strong></p>","null","neutral_feedback","0","test","10","","","","","","","","","","","","","","","",""
"","","","","","","","","","","","html-button-response","27","2.0.0","95374","66d7b253c64eb18aa549d79c","4","24","1220","","","","","","","","","<img src= ""rock_img/I_Peridotite_15.jpg"" style=""width:8cm; height:6cm;""><p>What type of rock is this?</p>","5","class_response","0","test","11","Pegmatite","Peridotite","15","false","6","7","","","","","","","","","",""
"","","","","","","","","","","","html-keyboard-response","28","2.0.0","95875","66d7b253c64eb18aa549d79c","4","24","null","","","","","","","","","<p style='font-size: 30px;'><strong>Okay</strong></p>","null","neutral_feedback","0","test","11","","","","","","","","","","","","","","","",""
"","","","","","","","","","","","html-button-response","29","2.0.0","97102","66d7b253c64eb18aa549d79c","4","24","1227","","","","","","","","","<img src= ""rock_img/I_Diorite_02.jpg"" style=""width:8cm; height:6.27cm;""><p>What type of rock is this?</p>","6","class_response","0","test","12","Peridotite","Diorite","02","false","7","3","","","","","","","","","",""
"","","","","","","","","","","","html-keyboard-response","30","2.0.0","97608","66d7b253c64eb18aa549d79c","4","24","null","","","","","","","","","<p style='font-size: 30px;'><strong>Okay</strong></p>","null","neutral_feedback","0","test","12","","","","","","","","","","","","","","","",""
"","","","","","","","","","","","html-button-response","31","2.0.0","98873","66d7b253c64eb18aa549d79c","4","24","1264","","","","","","","","","<img src= ""rock_img/I_Peridotite_07.jpg"" style=""width:8cm; height:4.83cm;""><p>What type of rock is this?</p>","2","class_response","0","test","13","Diorite","Peridotite","07","false","3","7","","","","","","","","","",""
"","","","","","","","","","","","html-keyboard-response","32","2.0.0","99387","66d7b253c64eb18aa549d79c","4","24","null","","","","","","","","","<p style='font-size: 30px;'><strong>Okay</strong></p>","null","neutral_feedback","0","test","13","","","","","","","","","","","","","","","",""
"","","","","","","","","","","","html-button-response","33","2.0.0","100423","66d7b253c64eb18aa549d79c","4","24","1034","","","","","","","","","<img src= ""rock_img/I_Peridotite_06.jpg"" style=""width:8cm; height:7.53cm;""><p>What type of rock is this?</p>","2","class_response","0","test","14","Diorite","Peridotite","06","false","3","7","","","","","","","","","",""
"","","","","","","","","","","","html-keyboard-response","34","2.0.0","100924","66d7b253c64eb18aa549d79c","4","24","null","","","","","","","","","<p style='font-size: 30px;'><strong>Okay</strong></p>","null","neutral_feedback","0","test","14","","","","","","","","","","","","","","","",""
"","","","","","","","","","","","html-button-response","35","2.0.0","102016","66d7b253c64eb18aa549d79c","4","24","1091","","","","","","","","","<img src= ""rock_img/I_Basalt_08.jpg"" style=""width:8cm; height:10.44cm;""><p>What type of rock is this?</p>","1","class_response","0","test","15","Basalt","Basalt","08","true","2","2","","","","","","","","","",""
"","","","","","","","","","","","html-keyboard-response","36","2.0.0","102521","66d7b253c64eb18aa549d79c","4","24","null","","","","","","","","","<p style='font-size: 30px;'><strong>Okay</strong></p>","null","neutral_feedback","0","test","15","","","","","","","","","","","","","","","",""
"","","","","","","","","","","","html-button-response","37","2.0.0","103402","66d7b253c64eb18aa549d79c","4","24","879","","","","","","","","","<img src= ""rock_img/I_Gabbro_01.jpg"" style=""width:8cm; height:5.21cm;""><p>What type of rock is this?</p>","5","class_response","0","test","16","Pegmatite","Gabbro","01","false","6","4","","","","","","","","","",""
"","","","","","","","","","","","html-keyboard-response","38","2.0.0","103903","66d7b253c64eb18aa549d79c","4","24","null","","","","","","","","","<p style='font-size: 30px;'><strong>Okay</strong></p>","null","neutral_feedback","0","test","16","","","","","","","","","","","","","","","",""
"","","","","","","","","","","","html-button-response","39","2.0.0","104776","66d7b253c64eb18aa549d79c","4","24","872","","","","","","","","","<img src= ""rock_img/I_Diorite_10.jpg"" style=""width:8cm; height:5.949999999999999cm;""><p>What type of rock is this?</p>","2","class_response","0","test","17","Diorite","Diorite","10","true","3","3","","","","","","","","","",""
"","","","","","","","","","","","html-keyboard-response","40","2.0.0","105281","66d7b253c64eb18aa549d79c","4","24","null","","","","","","","","","<p style='font-size: 30px;'><strong>Okay</strong></p>","null","neutral_feedback","0","test","17","","","","","","","","","","","","","","","",""
"","","","","","","","","","","","html-button-response","41","2.0.0","106315","66d7b253c64eb18aa549d79c","4","24","1033","","","","","","","","","<img src= ""rock_img/I_Andesite_11.jpg"" style=""width:8cm; height:4.92cm;""><p>What type of rock is this?</p>","6","class_response","0","test","18","Peridotite","Andesite","11","false","7","1","","","","","","","","","",""
"","","","","","","","","","","","html-keyboard-response","42","2.0.0","106822","66d7b253c64eb18aa549d79c","4","24","null","","","","","","","","","<p style='font-size: 30px;'><strong>Okay</strong></p>","null","neutral_feedback","0","test","18","","","","","","","","","","","","","","","",""
"","","","","","","","","","","","html-button-response","43","2.0.0","108452","66d7b253c64eb18aa549d79c","4","24","1629","","","","","","","","","<img src= ""rock_img/I_Basalt_10.jpg"" style=""width:8cm; height:5.85cm;""><p>What type of rock is this?</p>","5","class_response","0","test","19","Pegmatite","Basalt","10","false","6","2","","","","","","","","","",""
"","","","","","","","","","","","html-keyboard-response","44","2.0.0","108953","66d7b253c64eb18aa549d79c","4","24","null","","","","","","","","","<p style='font-size: 30px;'><strong>Okay</strong></p>","null","neutral_feedback","0","test","19","","","","","","","","","","","","","","","",""
"","","","","","","","","","","","html-button-response","45","2.0.0","110379","66d7b253c64eb18aa549d79c","4","24","1425","","","","","","","","","<img src= ""rock_img/I_Pumice_03.jpg"" style=""width:8cm; height:6.64cm;""><p>What type of rock is this?</p>","7","class_response","0","test","20","Pumice","Pumice","03","true","8","8","","","","","","","","","",""
"","","","","","","","","","","","html-keyboard-response","46","2.0.0","110880","66d7b253c64eb18aa549d79c","4","24","null","","","","","","","","","<p style='font-size: 30px;'><strong>Okay</strong></p>","null","neutral_feedback","0","test","20","","","","","","","","","","","","","","","",""
"","","","","","","","","","","","html-button-response","47","2.0.0","112013","66d7b253c64eb18aa549d79c","4","24","1132","","","","","","","","","<img src= ""rock_img/I_Andesite_07.jpg"" style=""width:8cm; height:5.93cm;""><p>What type of rock is this?</p>","0","class_response","0","test","21","Andesite","Andesite","07","true","1","1","","","","","","","","","",""
"","","","","","","","","","","","html-keyboard-response","48","2.0.0","112514","66d7b253c64eb18aa549d79c","4","24","null","","","","","","","","","<p style='font-size: 30px;'><strong>Okay</strong></p>","null","neutral_feedback","0","test","21","","","","","","","","","","","","","","","",""
"","","","","","","","","","","","html-button-response","49","2.0.0","114244","66d7b253c64eb18aa549d79c","4","24","1730","","","","","","","","","<img src= ""rock_img/I_Obsidian_14.jpg"" style=""width:8cm; height:7.64cm;""><p>What type of rock is this?</p>","4","class_response","0","test","22","Obsidian","Obsidian","14","true","5","5","","","","","","","","","",""
"","","","","","","","","","","","html-keyboard-response","50","2.0.0","114751","66d7b253c64eb18aa549d79c","4","24","null","","","","","","","","","<p style='font-size: 30px;'><strong>Okay</strong></p>","null","neutral_feedback","0","test","22","","","","","","","","","","","","","","","",""
"","","","","","","","","","","","html-button-response","51","2.0.0","116308","66d7b253c64eb18aa549d79c","4","24","1556","","","","","","","","","<img src= ""rock_img/I_Diorite_16.jpg"" style=""width:8cm; height:6.74cm;""><p>What type of rock is this?</p>","3","class_response","0","test","23","Gabbro","Diorite","16","false","4","3","","","","","","","","","",""
"","","","","","","","","","","","html-keyboard-response","52","2.0.0","116822","66d7b253c64eb18aa549d79c","4","24","null","","","","","","","","","<p style='font-size: 30px;'><strong>Okay</strong></p>","null","neutral_feedback","0","test","23","","","","","","","","","","","","","","","",""
"","","","","","","","","","","","html-button-response","53","2.0.0","117907","66d7b253c64eb18aa549d79c","4","24","1084","","","","","","","","","<img src= ""rock_img/I_Pegmatite_05.jpg"" style=""width:8cm; height:7.300000000000001cm;""><p>What type of rock is this?</p>","3","class_response","0","test","24","Gabbro","Pegmatite","05","false","4","6","","","","","","","","","",""
"","","","","","","","","","","","html-keyboard-response","54","2.0.0","118408","66d7b253c64eb18aa549d79c","4","24","null","","","","","","","","","<p style='font-size: 30px;'><strong>Okay</strong></p>","null","neutral_feedback","0","test","24","","","","","","","","","","","","","","","",""
"","","","","","","","","","","","html-button-response","55","2.0.0","120143","66d7b253c64eb18aa549d79c","4","24","1734","","","","","","","","","<img src= ""rock_img/I_Pumice_10.jpg"" style=""width:8cm; height:7.609999999999999cm;""><p>What type of rock is this?</p>","7","class_response","0","test","25","Pumice","Pumice","10","true","8","8","","","","","","","","","",""
"","","","","","","","","","","","html-keyboard-response","56","2.0.0","120658","66d7b253c64eb18aa549d79c","4","24","null","","","","","","","","","<p style='font-size: 30px;'><strong>Okay</strong></p>","null","neutral_feedback","0","test","25","","","","","","","","","","","","","","","",""
"","","","","","","","","","","","html-button-response","57","2.0.0","123466","66d7b253c64eb18aa549d79c","4","24","2806","","","","","","","","","<img src= ""rock_img/I_Andesite_14.jpg"" style=""width:8cm; height:5.449999999999999cm;""><p>What type of rock is this?</p>","1","class_response","0","test","26","Basalt","Andesite","14","false","2","1","","","","","","","","","",""
"","","","","","","","","","","","html-keyboard-response","58","2.0.0","123977","66d7b253c64eb18aa549d79c","4","24","null","","","","","","","","","<p style='font-size: 30px;'><strong>Okay</strong></p>","null","neutral_feedback","0","test","26","","","","","","","","","","","","","","","",""
"","","","","","","","","","","","html-button-response","59","2.0.0","125197","66d7b253c64eb18aa549d79c","4","24","1220","","","","","","","","","<img src= ""rock_img/I_Pegmatite_10.jpg"" style=""width:8cm; height:4.16cm;""><p>What type of rock is this?</p>","1","class_response","0","test","27","Basalt","Pegmatite","10","false","2","6","","","","","","","","","",""
"","","","","","","","","","","","html-keyboard-response","60","2.0.0","125705","66d7b253c64eb18aa549d79c","4","24","null","","","","","","","","","<p style='font-size: 30px;'><strong>Okay</strong></p>","null","neutral_feedback","0","test","27","","","","","","","","","","","","","","","",""
"","","","","","","","","","","","html-button-response","61","2.0.0","127635","66d7b253c64eb18aa549d79c","4","24","1929","","","","","","","","","<img src= ""rock_img/I_Basalt_12.jpg"" style=""width:8cm; height:6.010000000000001cm;""><p>What type of rock is this?</p>","7","class_response","0","test","28","Pumice","Basalt","12","false","8","2","","","","","","","","","",""
"","","","","","","","","","","","html-keyboard-response","62","2.0.0","128138","66d7b253c64eb18aa549d79c","4","24","null","","","","","","","","","<p style='font-size: 30px;'><strong>Okay</strong></p>","null","neutral_feedback","0","test","28","","","","","","","","","","","","","","","",""
"","","","","","","","","","","","html-button-response","63","2.0.0","128877","66d7b253c64eb18aa549d79c","4","24","737","","","","","","","","","<img src= ""rock_img/I_Gabbro_08.jpg"" style=""width:8cm; height:5.15cm;""><p>What type of rock is this?</p>","7","class_response","0","test","29","Pumice","Gabbro","08","false","8","4","","","","","","","","","",""
"","","","","","","","","","","","html-keyboard-response","64","2.0.0","129379","66d7b253c64eb18aa549d79c","4","24","null","","","","","","","","","<p style='font-size: 30px;'><strong>Okay</strong></p>","null","neutral_feedback","0","test","29","","","","","","","","","","","","","","","",""
"","","","","","","","","","","","html-button-response","65","2.0.0","130136","66d7b253c64eb18aa549d79c","4","24","756","","","","","","","","","<img src= ""rock_img/I_Pumice_09.jpg"" style=""width:8cm; height:6.44cm;""><p>What type of rock is this?</p>","7","class_response","0","test","30","Pumice","Pumice","09","true","8","8","","","","","","","","","",""
"","","","","","","","","","","","html-keyboard-response","66","2.0.0","130638","66d7b253c64eb18aa549d79c","4","24","null","","","","","","","","","<p style='font-size: 30px;'><strong>Okay</strong></p>","null","neutral_feedback","0","test","30","","","","","","","","","","","","","","","",""
"","","","","","","","","","","","html-button-response","67","2.0.0","131307","66d7b253c64eb18aa549d79c","4","24","668","","","","","","","","","<img src= ""rock_img/I_Peridotite_08.jpg"" style=""width:8cm; height:6.7cm;""><p>What type of rock is this?</p>","7","class_response","0","test","31","Pumice","Peridotite","08","false","8","7","","","","","","","","","",""
"","","","","","","","","","","","html-keyboard-response","68","2.0.0","131809","66d7b253c64eb18aa549d79c","4","24","null","","","","","","","","","<p style='font-size: 30px;'><strong>Okay</strong></p>","null","neutral_feedback","0","test","31","","","","","","","","","","","","","","","",""
"","","","","","","","","","","","html-button-response","69","2.0.0","132831","66d7b253c64eb18aa549d79c","4","24","1019","","","","","","","","","<img src= ""rock_img/I_Andesite_04.jpg"" style=""width:8cm; height:5.96cm;""><p>What type of rock is this?</p>","7","class_response","0","test","32","Pumice","Andesite","04","false","8","1","","","","","","","","","",""
"","","","","","","","","","","","html-keyboard-response","70","2.0.0","133336","66d7b253c64eb18aa549d79c","4","24","null","","","","","","","","","<p style='font-size: 30px;'><strong>Okay</strong></p>","null","neutral_feedback","0","test","32","","","","","","","","","","","","","","","",""
"","","","","","","","","","","","html-button-response","71","2.0.0","134558","66d7b253c64eb18aa549d79c","4","24","1220","","","","","","","","","<img src= ""rock_img/I_Obsidian_02.jpg"" style=""width:8cm; height:7.51cm;""><p>What type of rock is this?</p>","4","class_response","0","test","33","Obsidian","Obsidian","02","true","5","5","","","","","","","","","",""
"","","","","","","","","","","","html-keyboard-response","72","2.0.0","135063","66d7b253c64eb18aa549d79c","4","24","null","","","","","","","","","<p style='font-size: 30px;'><strong>Okay</strong></p>","null","neutral_feedback","0","test","33","","","","","","","","","","","","","","","",""
"","","","","","","","","","","","html-button-response","73","2.0.0","136347","66d7b253c64eb18aa549d79c","4","24","1283","","","","","","","","","<img src= ""rock_img/I_Gabbro_03.jpg"" style=""width:8cm; height:8.52cm;""><p>What type of rock is this?</p>","1","class_response","0","test","34","Basalt","Gabbro","03","false","2","4","","","","","","","","","",""
"","","","","","","","","","","","html-keyboard-response","74","2.0.0","136848","66d7b253c64eb18aa549d79c","4","24","null","","","","","","","","","<p style='font-size: 30px;'><strong>Okay</strong></p>","null","neutral_feedback","0","test","34","","","","","","","","","","","","","","","",""
"","","","","","","","","","","","html-button-response","75","2.0.0","137775","66d7b253c64eb18aa549d79c","4","24","927","","","","","","","","","<img src= ""rock_img/I_Peridotite_13.jpg"" style=""width:8cm; height:7.58cm;""><p>What type of rock is this?</p>","2","class_response","0","test","35","Diorite","Peridotite","13","false","3","7","","","","","","","","","",""
"","","","","","","","","","","","html-keyboard-response","76","2.0.0","138288","66d7b253c64eb18aa549d79c","4","24","null","","","","","","","","","<p style='font-size: 30px;'><strong>Okay</strong></p>","null","neutral_feedback","0","test","35","","","","","","","","","","","","","","","",""
"","","","","","","","","","","","html-button-response","77","2.0.0","139307","66d7b253c64eb18aa549d79c","4","24","1018","","","","","","","","","<img src= ""rock_img/I_Pegmatite_07.jpg"" style=""width:8cm; height:6.7cm;""><p>What type of rock is this?</p>","0","class_response","0","test","36","Andesite","Pegmatite","07","false","1","6","","","","","","","","","",""
"","","","","","","","","","","","html-keyboard-response","78","2.0.0","139808","66d7b253c64eb18aa549d79c","4","24","null","","","","","","","","","<p style='font-size: 30px;'><strong>Okay</strong></p>","null","neutral_feedback","0","test","36","","","","","","","","","","","","","","","",""
"","","","","","","","","","","","html-button-response","79","2.0.0","141824","66d7b253c64eb18aa549d79c","4","24","2015","","","","","","","","","<img src= ""rock_img/I_Andesite_06.jpg"" style=""width:8cm; height:6.840000000000001cm;""><p>What type of rock is this?</p>","6","class_response","0","test","37","Peridotite","Andesite","06","false","7","1","","","","","","","","","",""
"","","","","","","","","","","","html-keyboard-response","80","2.0.0","142330","66d7b253c64eb18aa549d79c","4","24","null","","","","","","","","","<p style='font-size: 30px;'><strong>Okay</strong></p>","null","neutral_feedback","0","test","37","","","","","","","","","","","","","","","",""
"","","","","","","","","","","","html-button-response","81","2.0.0","143901","66d7b253c64eb18aa549d79c","4","24","1570","","","","","","","","","<img src= ""rock_img/I_Diorite_07.jpg"" style=""width:8cm; height:5.239999999999999cm;""><p>What type of rock is this?</p>","1","class_response","0","test","38","Basalt","Diorite","07","false","2","3","","","","","","","","","",""
"","","","","","","","","","","","html-keyboard-response","82","2.0.0","144409","66d7b253c64eb18aa549d79c","4","24","null","","","","","","","","","<p style='font-size: 30px;'><strong>Okay</strong></p>","null","neutral_feedback","0","test","38","","","","","","","","","","","","","","","",""
"","","","","","","","","","","","html-button-response","83","2.0.0","145817","66d7b253c64eb18aa549d79c","4","24","1406","","","","","","","","","<img src= ""rock_img/I_Pegmatite_15.jpg"" style=""width:8cm; height:6cm;""><p>What type of rock is this?</p>","3","class_response","0","test","39","Gabbro","Pegmatite","15","false","4","6","","","","","","","","","",""
"","","","","","","","","","","","html-keyboard-response","84","2.0.0","146318","66d7b253c64eb18aa549d79c","4","24","null","","","","","","","","","<p style='font-size: 30px;'><strong>Okay</strong></p>","null","neutral_feedback","0","test","39","","","","","","","","","","","","","","","",""
"","","","","","","","","","","","html-button-response","85","2.0.0","147032","66d7b253c64eb18aa549d79c","4","24","713","","","","","","","","","<img src= ""rock_img/I_Andesite_10.jpg"" style=""width:8cm; height:4.16cm;""><p>What type of rock is this?</p>","6","class_response","0","test","40","Peridotite","Andesite","10","false","7","1","","","","","","","","","",""
"","","","","","","","","","","","html-keyboard-response","86","2.0.0","147533","66d7b253c64eb18aa549d79c","4","24","null","","","","","","","","","<p style='font-size: 30px;'><strong>Okay</strong></p>","null","neutral_feedback","0","test","40","","","","","","","","","","","","","","","",""
"","","","","","","","","","","","html-button-response","87","2.0.0","148374","66d7b253c64eb18aa549d79c","4","24","841","","","","","","","","","<img src= ""rock_img/I_Pumice_08.jpg"" style=""width:8cm; height:6.67cm;""><p>What type of rock is this?</p>","1","class_response","0","test","41","Basalt","Pumice","08","false","2","8","","","","","","","","","",""
"","","","","","","","","","","","html-keyboard-response","88","2.0.0","148881","66d7b253c64eb18aa549d79c","4","24","null","","","","","","","","","<p style='font-size: 30px;'><strong>Okay</strong></p>","null","neutral_feedback","0","test","41","","","","","","","","","","","","","","","",""
"","","","","","","","","","","","html-button-response","89","2.0.0","149567","66d7b253c64eb18aa549d79c","4","24","684","","","","","","","","","<img src= ""rock_img/I_Diorite_08.jpg"" style=""width:8cm; height:6.37cm;""><p>What type of rock is this?</p>","4","class_response","0","test","42","Obsidian","Diorite","08","false","5","3","","","","","","","","","",""
"","","","","","","","","","","","html-keyboard-response","90","2.0.0","150068","66d7b253c64eb18aa549d79c","4","24","null","","","","","","","","","<p style='font-size: 30px;'><strong>Okay</strong></p>","null","neutral_feedback","0","test","42","","","","","","","","","","","","","","","",""
"","","","","","","","","","","","html-button-response","91","2.0.0","151144","66d7b253c64eb18aa549d79c","4","24","1075","","","","","","","","","<img src= ""rock_img/I_Obsidian_06.jpg"" style=""width:8cm; height:6.8cm;""><p>What type of rock is this?</p>","4","class_response","0","test","43","Obsidian","Obsidian","06","true","5","5","","","","","","","","","",""
"","","","","","","","","","","","html-keyboard-response","92","2.0.0","151657","66d7b253c64eb18aa549d79c","4","24","null","","","","","","","","","<p style='font-size: 30px;'><strong>Okay</strong></p>","null","neutral_feedback","0","test","43","","","","","","","","","","","","","","","",""
"","","","","","","","","","","","html-button-response","93","2.0.0","152584","66d7b253c64eb18aa549d79c","4","24","926","","","","","","","","","<img src= ""rock_img/I_Obsidian_12.jpg"" style=""width:8cm; height:6.53cm;""><p>What type of rock is this?</p>","4","class_response","0","test","44","Obsidian","Obsidian","12","true","5","5","","","","","","","","","",""
"","","","","","","","","","","","html-keyboard-response","94","2.0.0","153090","66d7b253c64eb18aa549d79c","4","24","null","","","","","","","","","<p style='font-size: 30px;'><strong>Okay</strong></p>","null","neutral_feedback","0","test","44","","","","","","","","","","","","","","","",""
"","","","","","","","","","","","html-button-response","95","2.0.0","153838","66d7b253c64eb18aa549d79c","4","24","747","","","","","","","","","<img src= ""rock_img/I_Obsidian_04.jpg"" style=""width:8cm; height:6.930000000000001cm;""><p>What type of rock is this?</p>","4","class_response","0","test","45","Obsidian","Obsidian","04","true","5","5","","","","","","","","","",""
"","","","","","","","","","","","html-keyboard-response","96","2.0.0","154340","66d7b253c64eb18aa549d79c","4","24","null","","","","","","","","","<p style='font-size: 30px;'><strong>Okay</strong></p>","null","neutral_feedback","0","test","45","","","","","","","","","","","","","","","",""
"","","","","","","","","","","","html-button-response","97","2.0.0","155639","66d7b253c64eb18aa549d79c","4","24","1297","","","","","","","","","<img src= ""rock_img/I_Pumice_14.jpg"" style=""width:8cm; height:6.39cm;""><p>What type of rock is this?</p>","7","class_response","0","test","46","Pumice","Pumice","14","true","8","8","","","","","","","","","",""
"","","","","","","","","","","","html-keyboard-response","98","2.0.0","156146","66d7b253c64eb18aa549d79c","4","24","null","","","","","","","","","<p style='font-size: 30px;'><strong>Okay</strong></p>","null","neutral_feedback","0","test","46","","","","","","","","","","","","","","","",""
"","","","","","","","","","","","html-button-response","99","2.0.0","156996","66d7b253c64eb18aa549d79c","4","24","849","","","","","","","","","<img src= ""rock_img/I_Pumice_16.jpg"" style=""width:8cm; height:6.79cm;""><p>What type of rock is this?</p>","7","class_response","0","test","47","Pumice","Pumice","16","true","8","8","","","","","","","","","",""
"","","","","","","","","","","","html-keyboard-response","100","2.0.0","157501","66d7b253c64eb18aa549d79c","4","24","null","","","","","","","","","<p style='font-size: 30px;'><strong>Okay</strong></p>","null","neutral_feedback","0","test","47","","","","","","","","","","","","","","","",""
"","","","","","","","","","","","html-button-response","101","2.0.0","158895","66d7b253c64eb18aa549d79c","4","24","1393","","","","","","","","","<img src= ""rock_img/I_Basalt_04.jpg"" style=""width:8cm; height:7.53cm;""><p>What type of rock is this?</p>","2","class_response","0","test","48","Diorite","Basalt","04","false","3","2","","","","","","","","","",""
"","","","","","","","","","","","html-keyboard-response","102","2.0.0","159402","66d7b253c64eb18aa549d79c","4","24","null","","","","","","","","","<p style='font-size: 30px;'><strong>Okay</strong></p>","null","neutral_feedback","0","test","48","","","","","","","","","","","","","","","",""
"","","","","","","","","","","","instructions","103","2.0.0","176868","66d7b253c64eb18aa549d79c","4","24","17447","","","","","","","","[{""page_index"":0,""viewing_time"":14261},{""page_index"":1,""viewing_time"":3186}]","","","","","","","","","","","","","","","","","","","","","",""
"","","","","","","","","","","","html-button-response","104","2.0.0","179834","66d7b253c64eb18aa549d79c","4","24","2965","","","","","","","","","","0","start_train","","","","","","","","","","","","","","","","","","",""
"","","","","","","","","","","","html-button-response","106","2.0.0","181640","66d7b253c64eb18aa549d79c","4","24","1805","","","","","","","","","<img src= ""rock_img/I_Pegmatite_08.jpg"" style=""width:8cm; height:7.68cm;""><p>What type of rock is this?</p>","0","class_response","1","train","1","Andesite","Pegmatite","08","false","1","6","","","","","","","","","",""
"","","","","","","","","","","","html-button-response","107","2.0.0","195629","66d7b253c64eb18aa549d79c","4","24","13989","","","","","","","","","<img src= rock_img/I_Pegmatite_08.jpg style=""width:8cm; height:7.68cm;""><p style='font-size: 30px; color: red;'><strong>Incorrect!</strong></p><p style='font-size: 30px;'><strong>This rock is pegmatite</strong></p>","0","corr_feedback","1","train","1","","","","","","","","","","","","","","","",""
"","","","","","","","","","","","html-button-response","108","2.0.0","196918","66d7b253c64eb18aa549d79c","4","24","1288","","","","","","","","","<img src= ""rock_img/I_Obsidian_11.jpg"" style=""width:8cm; height:6.05cm;""><p>What type of rock is this?</p>","4","class_response","1","train","2","Obsidian","Obsidian","11","true","5","5","","","","","","","","","",""
"","","","","","","","","","","","html-button-response","109","2.0.0","200027","66d7b253c64eb18aa549d79c","4","24","3108","","","","","","","","","<img src= rock_img/I_Obsidian_11.jpg style=""width:8cm; height:6.05cm;""><p style='font-size: 30px; color: green;'><strong>Correct!</strong></p><p style='font-size: 30px;'><strong>This rock is obsidian</strong></p>","0","corr_feedback","1","train","2","","","","","","","","","","","","","","","",""
"","","","","","","","","","","","html-button-response","110","2.0.0","201965","66d7b253c64eb18aa549d79c","4","24","1937","","","","","","","","","<img src= ""rock_img/I_Obsidian_10.jpg"" style=""width:8cm; height:6.260000000000001cm;""><p>What type of rock is this?</p>","4","class_response","1","train","3","Obsidian","Obsidian","10","true","5","5","","","","","","","","","",""
"","","","","","","","","","","","html-button-response","111","2.0.0","204796","66d7b253c64eb18aa549d79c","4","24","2830","","","","","","","","","<img src= rock_img/I_Obsidian_10.jpg style=""width:8cm; height:6.260000000000001cm;""><p style='font-size: 30px; color: green;'><strong>Correct!</strong></p><p style='font-size: 30px;'><strong>This rock is obsidian</strong></p>","0","corr_feedback","1","train","3","","","","","","","","","","","","","","","",""
"","","","","","","","","","","","html-button-response","112","2.0.0","206557","66d7b253c64eb18aa549d79c","4","24","1761","","","","","","","","","<img src= ""rock_img/I_Diorite_09.jpg"" style=""width:8cm; height:5.27cm;""><p>What type of rock is this?</p>","7","class_response","1","train","4","Pumice","Diorite","09","false","8","3","","","","","","","","","",""
"","","","","","","","","","","","html-button-response","113","2.0.0","211223","66d7b253c64eb18aa549d79c","4","24","4665","","","","","","","","","<img src= rock_img/I_Diorite_09.jpg style=""width:8cm; height:5.27cm;""><p style='font-size: 30px; color: red;'><strong>Incorrect!</strong></p><p style='font-size: 30px;'><strong>This rock is diorite</strong></p>","0","corr_feedback","1","train","4","","","","","","","","","","","","","","","",""
"","","","","","","","","","","","html-button-response","114","2.0.0","214110","66d7b253c64eb18aa549d79c","4","24","2886","","","","","","","","","<img src= ""rock_img/I_Basalt_14.jpg"" style=""width:8cm; height:5.82cm;""><p>What type of rock is this?</p>","2","class_response","1","train","5","Diorite","Basalt","14","false","3","2","","","","","","","","","",""
"","","","","","","","","","","","html-button-response","115","2.0.0","218811","66d7b253c64eb18aa549d79c","4","24","4700","","","","","","","","","<img src= rock_img/I_Basalt_14.jpg style=""width:8cm; height:5.82cm;""><p style='font-size: 30px; color: red;'><strong>Incorrect!</strong></p><p style='font-size: 30px;'><strong>This rock is basalt</strong></p>","0","corr_feedback","1","train","5","","","","","","","","","","","","","","","",""
"","","","","","","","","","","","html-button-response","116","2.0.0","220937","66d7b253c64eb18aa549d79c","4","24","2125","","","","","","","","","<img src= ""rock_img/I_Gabbro_10.jpg"" style=""width:8cm; height:5.680000000000001cm;""><p>What type of rock is this?</p>","1","class_response","1","train","6","Basalt","Gabbro","10","false","2","4","","","","","","","","","",""
"","","","","","","","","","","","html-button-response","117","2.0.0","227804","66d7b253c64eb18aa549d79c","4","24","6867","","","","","","","","","<img src= rock_img/I_Gabbro_10.jpg style=""width:8cm; height:5.680000000000001cm;""><p style='font-size: 30px; color: red;'><strong>Incorrect!</strong></p><p style='font-size: 30px;'><strong>This rock is gabbro</strong></p>","0","corr_feedback","1","train","6","","","","","","","","","","","","","","","",""
"","","","","","","","","","","","html-button-response","118","2.0.0","229435","66d7b253c64eb18aa549d79c","4","24","1630","","","","","","","","","<img src= ""rock_img/I_Pumice_06.jpg"" style=""width:8cm; height:6.9399999999999995cm;""><p>What type of rock is this?</p>","7","class_response","1","train","7","Pumice","Pumice","06","true","8","8","","","","","","","","","",""
"","","","","","","","","","","","html-button-response","119","2.0.0","231211","66d7b253c64eb18aa549d79c","4","24","1776","","","","","","","","","<img src= rock_img/I_Pumice_06.jpg style=""width:8cm; height:6.9399999999999995cm;""><p style='font-size: 30px; color: green;'><strong>Correct!</strong></p><p style='font-size: 30px;'><strong>This rock is pumice</strong></p>","0","corr_feedback","1","train","7","","","","","","","","","","","","","","","",""
"","","","","","","","","","","","html-button-response","120","2.0.0","232690","66d7b253c64eb18aa549d79c","4","24","1477","","","","","","","","","<img src= ""rock_img/I_Pumice_15.jpg"" style=""width:8cm; height:7.86cm;""><p>What type of rock is this?</p>","7","class_response","1","train","8","Pumice","Pumice","15","true","8","8","","","","","","","","","",""
"","","","","","","","","","","","html-button-response","121","2.0.0","234397","66d7b253c64eb18aa549d79c","4","24","1706","","","","","","","","","<img src= rock_img/I_Pumice_15.jpg style=""width:8cm; height:7.86cm;""><p style='font-size: 30px; color: green;'><strong>Correct!</strong></p><p style='font-size: 30px;'><strong>This rock is pumice</strong></p>","0","corr_feedback","1","train","8","","","","","","","","","","","","","","","",""
"","","","","","","","","","","","html-button-response","122","2.0.0","236210","66d7b253c64eb18aa549d79c","4","24","1812","","","","","","","","","<img src= ""rock_img/I_Basalt_01.jpg"" style=""width:8cm; height:7.880000000000001cm;""><p>What type of rock is this?</p>","1","class_response","1","train","9","Basalt","Basalt","01","true","2","2","","","","","","","","","",""
"","","","","","","","","","","","html-button-response","123","2.0.0","238322","66d7b253c64eb18aa549d79c","4","24","2112","","","","","","","","","<img src= rock_img/I_Basalt_01.jpg style=""width:8cm; height:7.880000000000001cm;""><p style='font-size: 30px; color: green;'><strong>Correct!</strong></p><p style='font-size: 30px;'><strong>This rock is basalt</strong></p>","0","corr_feedback","1","train","9","","","","","","","","","","","","","","","",""
"","","","","","","","","","","","html-button-response","124","2.0.0","240492","66d7b253c64eb18aa549d79c","4","24","2169","","","","","","","","","<img src= ""rock_img/I_Pegmatite_11.jpg"" style=""width:8cm; height:8.14cm;""><p>What type of rock is this?</p>","0","class_response","1","train","10","Andesite","Pegmatite","11","false","1","6","","","","","","","","","",""
"","","","","","","","","","","","html-button-response","125","2.0.0","245605","66d7b253c64eb18aa549d79c","4","24","5113","","","","","","","","","<img src= rock_img/I_Pegmatite_11.jpg style=""width:8cm; height:8.14cm;""><p style='font-size: 30px; color: red;'><strong>Incorrect!</strong></p><p style='font-size: 30px;'><strong>This rock is pegmatite</strong></p>","0","corr_feedback","1","train","10","","","","","","","","","","","","","","","",""
"","","","","","","","","","","","html-button-response","126","2.0.0","247298","66d7b253c64eb18aa549d79c","4","24","1692","","","","","","","","","<img src= ""rock_img/I_Andesite_09.jpg"" style=""width:8cm; height:6cm;""><p>What type of rock is this?</p>","7","class_response","1","train","11","Pumice","Andesite","09","false","8","1","","","","","","","","","",""
"","","","","","","","","","","","html-button-response","127","2.0.0","250478","66d7b253c64eb18aa549d79c","4","24","3179","","","","","","","","","<img src= rock_img/I_Andesite_09.jpg style=""width:8cm; height:6cm;""><p style='font-size: 30px; color: red;'><strong>Incorrect!</strong></p><p style='font-size: 30px;'><strong>This rock is andesite</strong></p>","0","corr_feedback","1","train","11","","","","","","","","","","","","","","","",""
"","","","","","","","","","","","html-button-response","128","2.0.0","252459","66d7b253c64eb18aa549d79c","4","24","1980","","","","","","","","","<img src= ""rock_img/I_Peridotite_14.jpg"" style=""width:8cm; height:5.3cm;""><p>What type of rock is this?</p>","0","class_response","1","train","12","Andesite","Peridotite","14","false","1","7","","","","","","","","","",""
"","","","","","","","","","","","html-button-response","129","2.0.0","256309","66d7b253c64eb18aa549d79c","4","24","3850","","","","","","","","","<img src= rock_img/I_Peridotite_14.jpg style=""width:8cm; height:5.3cm;""><p style='font-size: 30px; color: red;'><strong>Incorrect!</strong></p><p style='font-size: 30px;'><strong>This rock is peridotite</strong></p>","0","corr_feedback","1","train","12","","","","","","","","","","","","","","","",""
"","","","","","","","","","","","instructions","130","2.0.0","310098","66d7b253c64eb18aa549d79c","4","24","53788","","","","","","","","[{""page_index"":0,""viewing_time"":5538},{""page_index"":1,""viewing_time"":20848},{""page_index"":2,""viewing_time"":24516},{""page_index"":3,""viewing_time"":2886}]","","","","","","","","","","","","","","","","","","","","","",""
"","","","","","","","","","","","html-button-response","131","2.0.0","311721","66d7b253c64eb18aa549d79c","4","24","1622","","","","","","","","","","0","start_train","","","","","","","","","","","","","","","","","","",""
"","","","","","","","","","","","html-button-response","132","2.0.0","319762","66d7b253c64eb18aa549d79c","4","24","","","","","","","","","","","","cat_selection","1","train","1","","","","","","","6680.199999988079","1360.1000000238419","4","1","Gabbro","Andesite","","","",""
"","","","","","","","","","","","paired-cat-display","133","1.0.0","360484","66d7b253c64eb18aa549d79c","4","24","","","","","","","","","","","","paired_cat_display","1","train","1","","","","","","","","","","","","","Almost looks like wood texture","kind of looks like gravel","9727","30992.099999964237"
"","","","","","","","","","","","html-button-response","134","2.0.0","364892","66d7b253c64eb18aa549d79c","4","24","","","","","","","","","","","","cat_selection","1","train","2","","","","","","","3957.800000011921","449.69999998807907","2","3","Basalt","Diorite","","","",""
