"width","height","webaudio","browser","browser_version","mobile","os","fullscreen","vsync_rate","webcam","microphone","trial_type","trial_index","plugin_version","time_elapsed","subjID","condition","stimID","rt","url","success","value","timeout","failed_images","failed_audio","failed_video","view_history","stimulus","response","trialType","cycle","phase","trial","resp","cat","token","corr","resp_num","cat_num","time_fb1","time_fb2"
"1536","722","true","firefox","132.0.0","false","Windows 10","true","204.78","true","true","browser-check","0","2.0.0","822","5aee513f3606ab0001b92b29","2","14","","","","","","","","","","","","","","","","","","","","","","",""
"","","","","","","","","","","","external-html","1","2.0.0","84424","5aee513f3606ab0001b92b29","2","14","83528","consent_form.html","","","","","","","","","","","","","","","","","","","","",""
"","","","","","","","","","","","fullscreen","2","2.0.0","89680","5aee513f3606ab0001b92b29","2","14","4247","","true","","","","","","","","","","","","","","","","","","","",""
"","","","","","","","","","","","call-function","3","2.0.0","89682","5aee513f3606ab0001b92b29","2","14","","","","{}","","","","","","","","","","","","","","","","","","",""
"","","","","","","","","","","","preload","4","2.0.0","94672","5aee513f3606ab0001b92b29","2","14","","","true","","false","[]","[]","[]","","","","","","","","","","","","","","",""
"","","","","","","","","","","","instructions","5","2.0.0","128707","5aee513f3606ab0001b92b29","2","14","34035","","","","","","","","[{""page_index"":0,""viewing_time"":14603},{""page_index"":1,""viewing_time"":13108},{""page_index"":2,""viewing_time"":6324}]","","","","","","","","","","","","","",""
"","","","","","","","","","","","html-button-response","6","2.0.0","130466","5aee513f3606ab0001b92b29","2","14","1757","","","","","","","","","","0","start_test","","","","","","","","","","",""
"","","","","","","","","","","","html-button-response","7","2.0.0","141967","5aee513f3606ab0001b92b29","2","14","11499","","","","","","","","","<img src= ""rock_img/I_Pegmatite_08.jpg"" style=""width:8cm; height:7.68cm;""><p>What type of rock is this?</p>","5","class_response","0","test","1","Pegmatite","Pegmatite","08","true","6","6","",""
"","","","","","","","","","","","html-keyboard-response","8","2.0.0","142481","5aee513f3606ab0001b92b29","2","14","null","","","","","","","","","<p style='font-size: 30px;'><strong>Okay</strong></p>","null","neutral_feedback","0","test","1","","","","","","","",""
"","","","","","","","","","","","html-button-response","9","2.0.0","148660","5aee513f3606ab0001b92b29","2","14","6177","","","","","","","","","<img src= ""rock_img/I_Pumice_04.jpg"" style=""width:8cm; height:6.819999999999999cm;""><p>What type of rock is this?</p>","1","class_response","0","test","2","Basalt","Pumice","04","false","2","8","",""
"","","","","","","","","","","","html-keyboard-response","10","2.0.0","149177","5aee513f3606ab0001b92b29","2","14","null","","","","","","","","","<p style='font-size: 30px;'><strong>Okay</strong></p>","null","neutral_feedback","0","test","2","","","","","","","",""
"","","","","","","","","","","","html-button-response","11","2.0.0","152502","5aee513f3606ab0001b92b29","2","14","3324","","","","","","","","","<img src= ""rock_img/I_Obsidian_07.jpg"" style=""width:8cm; height:4.76cm;""><p>What type of rock is this?</p>","6","class_response","0","test","3","Peridotite","Obsidian","07","false","7","5","",""
"","","","","","","","","","","","html-keyboard-response","12","2.0.0","153003","5aee513f3606ab0001b92b29","2","14","null","","","","","","","","","<p style='font-size: 30px;'><strong>Okay</strong></p>","null","neutral_feedback","0","test","3","","","","","","","",""
"","","","","","","","","","","","html-button-response","13","2.0.0","155996","5aee513f3606ab0001b92b29","2","14","2992","","","","","","","","","<img src= ""rock_img/I_Gabbro_14.jpg"" style=""width:8cm; height:8.48cm;""><p>What type of rock is this?</p>","3","class_response","0","test","4","Gabbro","Gabbro","14","true","4","4","",""
"","","","","","","","","","","","html-keyboard-response","14","2.0.0","156506","5aee513f3606ab0001b92b29","2","14","null","","","","","","","","","<p style='font-size: 30px;'><strong>Okay</strong></p>","null","neutral_feedback","0","test","4","","","","","","","",""
"","","","","","","","","","","","html-button-response","15","2.0.0","158708","5aee513f3606ab0001b92b29","2","14","2202","","","","","","","","","<img src= ""rock_img/I_Obsidian_10.jpg"" style=""width:8cm; height:6.260000000000001cm;""><p>What type of rock is this?</p>","0","class_response","0","test","5","Andesite","Obsidian","10","false","1","5","",""
"","","","","","","","","","","","html-keyboard-response","16","2.0.0","159212","5aee513f3606ab0001b92b29","2","14","null","","","","","","","","","<p style='font-size: 30px;'><strong>Okay</strong></p>","null","neutral_feedback","0","test","5","","","","","","","",""
"","","","","","","","","","","","html-button-response","17","2.0.0","164985","5aee513f3606ab0001b92b29","2","14","5772","","","","","","","","","<img src= ""rock_img/I_Peridotite_10.jpg"" style=""width:8cm; height:5.390000000000001cm;""><p>What type of rock is this?</p>","2","class_response","0","test","6","Diorite","Peridotite","10","false","3","7","",""
"","","","","","","","","","","","html-keyboard-response","18","2.0.0","165499","5aee513f3606ab0001b92b29","2","14","null","","","","","","","","","<p style='font-size: 30px;'><strong>Okay</strong></p>","null","neutral_feedback","0","test","6","","","","","","","",""
"","","","","","","","","","","","html-button-response","19","2.0.0","168789","5aee513f3606ab0001b92b29","2","14","3289","","","","","","","","","<img src= ""rock_img/I_Obsidian_05.jpg"" style=""width:8cm; height:6.33cm;""><p>What type of rock is this?</p>","4","class_response","0","test","7","Obsidian","Obsidian","05","true","5","5","",""
"","","","","","","","","","","","html-keyboard-response","20","2.0.0","169305","5aee513f3606ab0001b92b29","2","14","null","","","","","","","","","<p style='font-size: 30px;'><strong>Okay</strong></p>","null","neutral_feedback","0","test","7","","","","","","","",""
"","","","","","","","","","","","html-button-response","21","2.0.0","174816","5aee513f3606ab0001b92b29","2","14","5510","","","","","","","","","<img src= ""rock_img/I_Diorite_11.jpg"" style=""width:8cm; height:7.11cm;""><p>What type of rock is this?</p>","2","class_response","0","test","8","Diorite","Diorite","11","true","3","3","",""
"","","","","","","","","","","","html-keyboard-response","22","2.0.0","175323","5aee513f3606ab0001b92b29","2","14","null","","","","","","","","","<p style='font-size: 30px;'><strong>Okay</strong></p>","null","neutral_feedback","0","test","8","","","","","","","",""
"","","","","","","","","","","","html-button-response","23","2.0.0","180544","5aee513f3606ab0001b92b29","2","14","5221","","","","","","","","","<img src= ""rock_img/I_Gabbro_16.jpg"" style=""width:8cm; height:6.44cm;""><p>What type of rock is this?</p>","5","class_response","0","test","9","Pegmatite","Gabbro","16","false","6","4","",""
"","","","","","","","","","","","html-keyboard-response","24","2.0.0","181055","5aee513f3606ab0001b92b29","2","14","null","","","","","","","","","<p style='font-size: 30px;'><strong>Okay</strong></p>","null","neutral_feedback","0","test","9","","","","","","","",""
"","","","","","","","","","","","html-button-response","25","2.0.0","186208","5aee513f3606ab0001b92b29","2","14","5151","","","","","","","","","<img src= ""rock_img/I_Andesite_03.jpg"" style=""width:8cm; height:5.73cm;""><p>What type of rock is this?</p>","1","class_response","0","test","10","Basalt","Andesite","03","false","2","1","",""
"","","","","","","","","","","","html-keyboard-response","26","2.0.0","186715","5aee513f3606ab0001b92b29","2","14","null","","","","","","","","","<p style='font-size: 30px;'><strong>Okay</strong></p>","null","neutral_feedback","0","test","10","","","","","","","",""
"","","","","","","","","","","","html-button-response","27","2.0.0","193669","5aee513f3606ab0001b92b29","2","14","6953","","","","","","","","","<img src= ""rock_img/I_Pumice_15.jpg"" style=""width:8cm; height:7.86cm;""><p>What type of rock is this?</p>","3","class_response","0","test","11","Gabbro","Pumice","15","false","4","8","",""
"","","","","","","","","","","","html-keyboard-response","28","2.0.0","194174","5aee513f3606ab0001b92b29","2","14","null","","","","","","","","","<p style='font-size: 30px;'><strong>Okay</strong></p>","null","neutral_feedback","0","test","11","","","","","","","",""
"","","","","","","","","","","","html-button-response","29","2.0.0","197075","5aee513f3606ab0001b92b29","2","14","2900","","","","","","","","","<img src= ""rock_img/I_Pegmatite_13.jpg"" style=""width:8cm; height:4.95cm;""><p>What type of rock is this?</p>","6","class_response","0","test","12","Peridotite","Pegmatite","13","false","7","6","",""
"","","","","","","","","","","","html-keyboard-response","30","2.0.0","197577","5aee513f3606ab0001b92b29","2","14","null","","","","","","","","","<p style='font-size: 30px;'><strong>Okay</strong></p>","null","neutral_feedback","0","test","12","","","","","","","",""
"","","","","","","","","","","","html-button-response","31","2.0.0","199899","5aee513f3606ab0001b92b29","2","14","2320","","","","","","","","","<img src= ""rock_img/I_Peridotite_05.jpg"" style=""width:8cm; height:7.1499999999999995cm;""><p>What type of rock is this?</p>","0","class_response","0","test","13","Andesite","Peridotite","05","false","1","7","",""
"","","","","","","","","","","","html-keyboard-response","32","2.0.0","200414","5aee513f3606ab0001b92b29","2","14","null","","","","","","","","","<p style='font-size: 30px;'><strong>Okay</strong></p>","null","neutral_feedback","0","test","13","","","","","","","",""
"","","","","","","","","","","","html-button-response","33","2.0.0","204656","5aee513f3606ab0001b92b29","2","14","4240","","","","","","","","","<img src= ""rock_img/I_Gabbro_08.jpg"" style=""width:8cm; height:5.15cm;""><p>What type of rock is this?</p>","1","class_response","0","test","14","Basalt","Gabbro","08","false","2","4","",""
"","","","","","","","","","","","html-keyboard-response","34","2.0.0","205164","5aee513f3606ab0001b92b29","2","14","null","","","","","","","","","<p style='font-size: 30px;'><strong>Okay</strong></p>","null","neutral_feedback","0","test","14","","","","","","","",""
"","","","","","","","","","","","html-button-response","35","2.0.0","207769","5aee513f3606ab0001b92b29","2","14","2603","","","","","","","","","<img src= ""rock_img/I_Andesite_05.jpg"" style=""width:8cm; height:4.12cm;""><p>What type of rock is this?</p>","2","class_response","0","test","15","Diorite","Andesite","05","false","3","1","",""
"","","","","","","","","","","","html-keyboard-response","36","2.0.0","208274","5aee513f3606ab0001b92b29","2","14","null","","","","","","","","","<p style='font-size: 30px;'><strong>Okay</strong></p>","null","neutral_feedback","0","test","15","","","","","","","",""
"","","","","","","","","","","","html-button-response","37","2.0.0","209819","5aee513f3606ab0001b92b29","2","14","1544","","","","","","","","","<img src= ""rock_img/I_Diorite_14.jpg"" style=""width:8cm; height:5.71cm;""><p>What type of rock is this?</p>","0","class_response","0","test","16","Andesite","Diorite","14","false","1","3","",""
"","","","","","","","","","","","html-keyboard-response","38","2.0.0","210333","5aee513f3606ab0001b92b29","2","14","null","","","","","","","","","<p style='font-size: 30px;'><strong>Okay</strong></p>","null","neutral_feedback","0","test","16","","","","","","","",""
"","","","","","","","","","","","html-button-response","39","2.0.0","212185","5aee513f3606ab0001b92b29","2","14","1852","","","","","","","","","<img src= ""rock_img/I_Basalt_09.jpg"" style=""width:8cm; height:6.2cm;""><p>What type of rock is this?</p>","4","class_response","0","test","17","Obsidian","Basalt","09","false","5","2","",""
"","","","","","","","","","","","html-keyboard-response","40","2.0.0","212689","5aee513f3606ab0001b92b29","2","14","null","","","","","","","","","<p style='font-size: 30px;'><strong>Okay</strong></p>","null","neutral_feedback","0","test","17","","","","","","","",""
"","","","","","","","","","","","html-button-response","41","2.0.0","215781","5aee513f3606ab0001b92b29","2","14","3092","","","","","","","","","<img src= ""rock_img/I_Pumice_06.jpg"" style=""width:8cm; height:6.9399999999999995cm;""><p>What type of rock is this?</p>","3","class_response","0","test","18","Gabbro","Pumice","06","false","4","8","",""
"","","","","","","","","","","","html-keyboard-response","42","2.0.0","216291","5aee513f3606ab0001b92b29","2","14","null","","","","","","","","","<p style='font-size: 30px;'><strong>Okay</strong></p>","null","neutral_feedback","0","test","18","","","","","","","",""
"","","","","","","","","","","","html-button-response","43","2.0.0","217830","5aee513f3606ab0001b92b29","2","14","1537","","","","","","","","","<img src= ""rock_img/I_Basalt_08.jpg"" style=""width:8cm; height:10.44cm;""><p>What type of rock is this?</p>","4","class_response","0","test","19","Obsidian","Basalt","08","false","5","2","",""
"","","","","","","","","","","","html-keyboard-response","44","2.0.0","218339","5aee513f3606ab0001b92b29","2","14","null","","","","","","","","","<p style='font-size: 30px;'><strong>Okay</strong></p>","null","neutral_feedback","0","test","19","","","","","","","",""
"","","","","","","","","","","","html-button-response","45","2.0.0","220201","5aee513f3606ab0001b92b29","2","14","1860","","","","","","","","","<img src= ""rock_img/I_Gabbro_10.jpg"" style=""width:8cm; height:5.680000000000001cm;""><p>What type of rock is this?</p>","7","class_response","0","test","20","Pumice","Gabbro","10","false","8","4","",""
"","","","","","","","","","","","html-keyboard-response","46","2.0.0","220713","5aee513f3606ab0001b92b29","2","14","null","","","","","","","","","<p style='font-size: 30px;'><strong>Okay</strong></p>","null","neutral_feedback","0","test","20","","","","","","","",""
"","","","","","","","","","","","html-button-response","47","2.0.0","223379","5aee513f3606ab0001b92b29","2","14","2667","","","","","","","","","<img src= ""rock_img/I_Peridotite_14.jpg"" style=""width:8cm; height:5.3cm;""><p>What type of rock is this?</p>","1","class_response","0","test","21","Basalt","Peridotite","14","false","2","7","",""
"","","","","","","","","","","","html-keyboard-response","48","2.0.0","223884","5aee513f3606ab0001b92b29","2","14","null","","","","","","","","","<p style='font-size: 30px;'><strong>Okay</strong></p>","null","neutral_feedback","0","test","21","","","","","","","",""
"","","","","","","","","","","","html-button-response","49","2.0.0","231831","5aee513f3606ab0001b92b29","2","14","7944","","","","","","","","","<img src= ""rock_img/I_Pumice_05.jpg"" style=""width:8cm; height:7.25cm;""><p>What type of rock is this?</p>","5","class_response","0","test","22","Pegmatite","Pumice","05","false","6","8","",""
"","","","","","","","","","","","html-keyboard-response","50","2.0.0","232339","5aee513f3606ab0001b92b29","2","14","null","","","","","","","","","<p style='font-size: 30px;'><strong>Okay</strong></p>","null","neutral_feedback","0","test","22","","","","","","","",""
"","","","","","","","","","","","html-button-response","51","2.0.0","236731","5aee513f3606ab0001b92b29","2","14","4392","","","","","","","","","<img src= ""rock_img/I_Pegmatite_09.jpg"" style=""width:8cm; height:4.03cm;""><p>What type of rock is this?</p>","6","class_response","0","test","23","Peridotite","Pegmatite","09","false","7","6","",""
"","","","","","","","","","","","html-keyboard-response","52","2.0.0","237243","5aee513f3606ab0001b92b29","2","14","null","","","","","","","","","<p style='font-size: 30px;'><strong>Okay</strong></p>","null","neutral_feedback","0","test","23","","","","","","","",""
"","","","","","","","","","","","html-button-response","53","2.0.0","238530","5aee513f3606ab0001b92b29","2","14","1284","","","","","","","","","<img src= ""rock_img/I_Obsidian_12.jpg"" style=""width:8cm; height:6.53cm;""><p>What type of rock is this?</p>","4","class_response","0","test","24","Obsidian","Obsidian","12","true","5","5","",""
"","","","","","","","","","","","html-keyboard-response","54","2.0.0","239054","5aee513f3606ab0001b92b29","2","14","null","","","","","","","","","<p style='font-size: 30px;'><strong>Okay</strong></p>","null","neutral_feedback","0","test","24","","","","","","","",""
"","","","","","","","","","","","html-button-response","55","2.0.0","241292","5aee513f3606ab0001b92b29","2","14","2236","","","","","","","","","<img src= ""rock_img/I_Gabbro_05.jpg"" style=""width:8cm; height:6cm;""><p>What type of rock is this?</p>","3","class_response","0","test","25","Gabbro","Gabbro","05","true","4","4","",""
"","","","","","","","","","","","html-keyboard-response","56","2.0.0","241804","5aee513f3606ab0001b92b29","2","14","null","","","","","","","","","<p style='font-size: 30px;'><strong>Okay</strong></p>","null","neutral_feedback","0","test","25","","","","","","","",""
"","","","","","","","","","","","html-button-response","57","2.0.0","244074","5aee513f3606ab0001b92b29","2","14","2269","","","","","","","","","<img src= ""rock_img/I_Peridotite_15.jpg"" style=""width:8cm; height:6cm;""><p>What type of rock is this?</p>","7","class_response","0","test","26","Pumice","Peridotite","15","false","8","7","",""
"","","","","","","","","","","","html-keyboard-response","58","2.0.0","244589","5aee513f3606ab0001b92b29","2","14","null","","","","","","","","","<p style='font-size: 30px;'><strong>Okay</strong></p>","null","neutral_feedback","0","test","26","","","","","","","",""
"","","","","","","","","","","","html-button-response","59","2.0.0","246226","5aee513f3606ab0001b92b29","2","14","1636","","","","","","","","","<img src= ""rock_img/I_Pegmatite_05.jpg"" style=""width:8cm; height:7.300000000000001cm;""><p>What type of rock is this?</p>","4","class_response","0","test","27","Obsidian","Pegmatite","05","false","5","6","",""
"","","","","","","","","","","","html-keyboard-response","60","2.0.0","246736","5aee513f3606ab0001b92b29","2","14","null","","","","","","","","","<p style='font-size: 30px;'><strong>Okay</strong></p>","null","neutral_feedback","0","test","27","","","","","","","",""
"","","","","","","","","","","","html-button-response","61","2.0.0","248069","5aee513f3606ab0001b92b29","2","14","1333","","","","","","","","","<img src= ""rock_img/I_Basalt_02.jpg"" style=""width:8cm; height:6.45cm;""><p>What type of rock is this?</p>","4","class_response","0","test","28","Obsidian","Basalt","02","false","5","2","",""
"","","","","","","","","","","","html-keyboard-response","62","2.0.0","248579","5aee513f3606ab0001b92b29","2","14","null","","","","","","","","","<p style='font-size: 30px;'><strong>Okay</strong></p>","null","neutral_feedback","0","test","28","","","","","","","",""
"","","","","","","","","","","","html-button-response","63","2.0.0","250747","5aee513f3606ab0001b92b29","2","14","2166","","","","","","","","","<img src= ""rock_img/I_Obsidian_09.jpg"" style=""width:8cm; height:5cm;""><p>What type of rock is this?</p>","4","class_response","0","test","29","Obsidian","Obsidian","09","true","5","5","",""
"","","","","","","","","","","","html-keyboard-response","64","2.0.0","251263","5aee513f3606ab0001b92b29","2","14","null","","","","","","","","","<p style='font-size: 30px;'><strong>Okay</strong></p>","null","neutral_feedback","0","test","29","","","","","","","",""
"","","","","","","","","","","","html-button-response","65","2.0.0","254601","5aee513f3606ab0001b92b29","2","14","3339","","","","","","","","","<img src= ""rock_img/I_Pegmatite_03.jpg"" style=""width:8cm; height:5.239999999999999cm;""><p>What type of rock is this?</p>","6","class_response","0","test","30","Peridotite","Pegmatite","03","false","7","6","",""
"","","","","","","","","","","","html-keyboard-response","66","2.0.0","255103","5aee513f3606ab0001b92b29","2","14","null","","","","","","","","","<p style='font-size: 30px;'><strong>Okay</strong></p>","null","neutral_feedback","0","test","30","","","","","","","",""
"","","","","","","","","","","","html-button-response","67","2.0.0","258270","5aee513f3606ab0001b92b29","2","14","3166","","","","","","","","","<img src= ""rock_img/I_Basalt_10.jpg"" style=""width:8cm; height:5.85cm;""><p>What type of rock is this?</p>","3","class_response","0","test","31","Gabbro","Basalt","10","false","4","2","",""
"","","","","","","","","","","","html-keyboard-response","68","2.0.0","258776","5aee513f3606ab0001b92b29","2","14","null","","","","","","","","","<p style='font-size: 30px;'><strong>Okay</strong></p>","null","neutral_feedback","0","test","31","","","","","","","",""
"","","","","","","","","","","","html-button-response","69","2.0.0","262959","5aee513f3606ab0001b92b29","2","14","4183","","","","","","","","","<img src= ""rock_img/I_Pegmatite_16.jpg"" style=""width:8cm; height:5.8cm;""><p>What type of rock is this?</p>","0","class_response","0","test","32","Andesite","Pegmatite","16","false","1","6","",""
"","","","","","","","","","","","html-keyboard-response","70","2.0.0","263469","5aee513f3606ab0001b92b29","2","14","null","","","","","","","","","<p style='font-size: 30px;'><strong>Okay</strong></p>","null","neutral_feedback","0","test","32","","","","","","","",""
"","","","","","","","","","","","html-button-response","71","2.0.0","264981","5aee513f3606ab0001b92b29","2","14","1511","","","","","","","","","<img src= ""rock_img/I_Obsidian_02.jpg"" style=""width:8cm; height:7.51cm;""><p>What type of rock is this?</p>","4","class_response","0","test","33","Obsidian","Obsidian","02","true","5","5","",""
"","","","","","","","","","","","html-keyboard-response","72","2.0.0","265489","5aee513f3606ab0001b92b29","2","14","null","","","","","","","","","<p style='font-size: 30px;'><strong>Okay</strong></p>","null","neutral_feedback","0","test","33","","","","","","","",""
"","","","","","","","","","","","html-button-response","73","2.0.0","267739","5aee513f3606ab0001b92b29","2","14","2249","","","","","","","","","<img src= ""rock_img/I_Basalt_16.jpg"" style=""width:8cm; height:7.659999999999999cm;""><p>What type of rock is this?</p>","7","class_response","0","test","34","Pumice","Basalt","16","false","8","2","",""
"","","","","","","","","","","","html-keyboard-response","74","2.0.0","268243","5aee513f3606ab0001b92b29","2","14","null","","","","","","","","","<p style='font-size: 30px;'><strong>Okay</strong></p>","null","neutral_feedback","0","test","34","","","","","","","",""
"","","","","","","","","","","","html-button-response","75","2.0.0","270651","5aee513f3606ab0001b92b29","2","14","2408","","","","","","","","","<img src= ""rock_img/I_Peridotite_16.jpg"" style=""width:8cm; height:6.989999999999999cm;""><p>What type of rock is this?</p>","5","class_response","0","test","35","Pegmatite","Peridotite","16","false","6","7","",""
"","","","","","","","","","","","html-keyboard-response","76","2.0.0","271167","5aee513f3606ab0001b92b29","2","14","null","","","","","","","","","<p style='font-size: 30px;'><strong>Okay</strong></p>","null","neutral_feedback","0","test","35","","","","","","","",""
"","","","","","","","","","","","html-button-response","77","2.0.0","274689","5aee513f3606ab0001b92b29","2","14","3521","","","","","","","","","<img src= ""rock_img/I_Andesite_02.jpg"" style=""width:8cm; height:8.5cm;""><p>What type of rock is this?</p>","1","class_response","0","test","36","Basalt","Andesite","02","false","2","1","",""
"","","","","","","","","","","","html-keyboard-response","78","2.0.0","275204","5aee513f3606ab0001b92b29","2","14","null","","","","","","","","","<p style='font-size: 30px;'><strong>Okay</strong></p>","null","neutral_feedback","0","test","36","","","","","","","",""
"","","","","","","","","","","","html-button-response","79","2.0.0","276498","5aee513f3606ab0001b92b29","2","14","1293","","","","","","","","","<img src= ""rock_img/I_Basalt_06.jpg"" style=""width:8cm; height:7.06cm;""><p>What type of rock is this?</p>","4","class_response","0","test","37","Obsidian","Basalt","06","false","5","2","",""
"","","","","","","","","","","","html-keyboard-response","80","2.0.0","277008","5aee513f3606ab0001b92b29","2","14","null","","","","","","","","","<p style='font-size: 30px;'><strong>Okay</strong></p>","null","neutral_feedback","0","test","37","","","","","","","",""
"","","","","","","","","","","","html-button-response","81","2.0.0","281769","5aee513f3606ab0001b92b29","2","14","4760","","","","","","","","","<img src= ""rock_img/I_Pumice_09.jpg"" style=""width:8cm; height:6.44cm;""><p>What type of rock is this?</p>","7","class_response","0","test","38","Pumice","Pumice","09","true","8","8","",""
"","","","","","","","","","","","html-keyboard-response","82","2.0.0","282272","5aee513f3606ab0001b92b29","2","14","null","","","","","","","","","<p style='font-size: 30px;'><strong>Okay</strong></p>","null","neutral_feedback","0","test","38","","","","","","","",""
"","","","","","","","","","","","html-button-response","83","2.0.0","286673","5aee513f3606ab0001b92b29","2","14","4400","","","","","","","","","<img src= ""rock_img/I_Andesite_11.jpg"" style=""width:8cm; height:4.92cm;""><p>What type of rock is this?</p>","5","class_response","0","test","39","Pegmatite","Andesite","11","false","6","1","",""
"","","","","","","","","","","","html-keyboard-response","84","2.0.0","287182","5aee513f3606ab0001b92b29","2","14","null","","","","","","","","","<p style='font-size: 30px;'><strong>Okay</strong></p>","null","neutral_feedback","0","test","39","","","","","","","",""
"","","","","","","","","","","","html-button-response","85","2.0.0","288909","5aee513f3606ab0001b92b29","2","14","1726","","","","","","","","","<img src= ""rock_img/I_Diorite_12.jpg"" style=""width:8cm; height:4.88cm;""><p>What type of rock is this?</p>","3","class_response","0","test","40","Gabbro","Diorite","12","false","4","3","",""
"","","","","","","","","","","","html-keyboard-response","86","2.0.0","289416","5aee513f3606ab0001b92b29","2","14","null","","","","","","","","","<p style='font-size: 30px;'><strong>Okay</strong></p>","null","neutral_feedback","0","test","40","","","","","","","",""
"","","","","","","","","","","","html-button-response","87","2.0.0","291770","5aee513f3606ab0001b92b29","2","14","2353","","","","","","","","","<img src= ""rock_img/I_Diorite_16.jpg"" style=""width:8cm; height:6.74cm;""><p>What type of rock is this?</p>","0","class_response","0","test","41","Andesite","Diorite","16","false","1","3","",""
"","","","","","","","","","","","html-keyboard-response","88","2.0.0","292285","5aee513f3606ab0001b92b29","2","14","null","","","","","","","","","<p style='font-size: 30px;'><strong>Okay</strong></p>","null","neutral_feedback","0","test","41","","","","","","","",""
"","","","","","","","","","","","html-button-response","89","2.0.0","296945","5aee513f3606ab0001b92b29","2","14","4658","","","","","","","","","<img src= ""rock_img/I_Peridotite_13.jpg"" style=""width:8cm; height:7.58cm;""><p>What type of rock is this?</p>","6","class_response","0","test","42","Peridotite","Peridotite","13","true","7","7","",""
"","","","","","","","","","","","html-keyboard-response","90","2.0.0","297459","5aee513f3606ab0001b92b29","2","14","null","","","","","","","","","<p style='font-size: 30px;'><strong>Okay</strong></p>","null","neutral_feedback","0","test","42","","","","","","","",""
"","","","","","","","","","","","html-button-response","91","2.0.0","299660","5aee513f3606ab0001b92b29","2","14","2200","","","","","","","","","<img src= ""rock_img/I_Andesite_14.jpg"" style=""width:8cm; height:5.449999999999999cm;""><p>What type of rock is this?</p>","3","class_response","0","test","43","Gabbro","Andesite","14","false","4","1","",""
"","","","","","","","","","","","html-keyboard-response","92","2.0.0","300168","5aee513f3606ab0001b92b29","2","14","null","","","","","","","","","<p style='font-size: 30px;'><strong>Okay</strong></p>","null","neutral_feedback","0","test","43","","","","","","","",""
"","","","","","","","","","","","html-button-response","93","2.0.0","307188","5aee513f3606ab0001b92b29","2","14","7020","","","","","","","","","<img src= ""rock_img/I_Gabbro_12.jpg"" style=""width:8cm; height:7.800000000000001cm;""><p>What type of rock is this?</p>","1","class_response","0","test","44","Basalt","Gabbro","12","false","2","4","",""
"","","","","","","","","","","","html-keyboard-response","94","2.0.0","307696","5aee513f3606ab0001b92b29","2","14","null","","","","","","","","","<p style='font-size: 30px;'><strong>Okay</strong></p>","null","neutral_feedback","0","test","44","","","","","","","",""
"","","","","","","","","","","","html-button-response","95","2.0.0","311136","5aee513f3606ab0001b92b29","2","14","3440","","","","","","","","","<img src= ""rock_img/I_Andesite_16.jpg"" style=""width:8cm; height:6.010000000000001cm;""><p>What type of rock is this?</p>","3","class_response","0","test","45","Gabbro","Andesite","16","false","4","1","",""
"","","","","","","","","","","","html-keyboard-response","96","2.0.0","311653","5aee513f3606ab0001b92b29","2","14","null","","","","","","","","","<p style='font-size: 30px;'><strong>Okay</strong></p>","null","neutral_feedback","0","test","45","","","","","","","",""
"","","","","","","","","","","","html-button-response","97","2.0.0","314007","5aee513f3606ab0001b92b29","2","14","2354","","","","","","","","","<img src= ""rock_img/I_Diorite_10.jpg"" style=""width:8cm; height:5.949999999999999cm;""><p>What type of rock is this?</p>","7","class_response","0","test","46","Pumice","Diorite","10","false","8","3","",""
"","","","","","","","","","","","html-keyboard-response","98","2.0.0","314512","5aee513f3606ab0001b92b29","2","14","null","","","","","","","","","<p style='font-size: 30px;'><strong>Okay</strong></p>","null","neutral_feedback","0","test","46","","","","","","","",""
"","","","","","","","","","","","html-button-response","99","2.0.0","316627","5aee513f3606ab0001b92b29","2","14","2114","","","","","","","","","<img src= ""rock_img/I_Diorite_06.jpg"" style=""width:8cm; height:6.03cm;""><p>What type of rock is this?</p>","5","class_response","0","test","47","Pegmatite","Diorite","06","false","6","3","",""
"","","","","","","","","","","","html-keyboard-response","100","2.0.0","317137","5aee513f3606ab0001b92b29","2","14","null","","","","","","","","","<p style='font-size: 30px;'><strong>Okay</strong></p>","null","neutral_feedback","0","test","47","","","","","","","",""
"","","","","","","","","","","","html-button-response","101","2.0.0","319401","5aee513f3606ab0001b92b29","2","14","2263","","","","","","","","","<img src= ""rock_img/I_Pumice_16.jpg"" style=""width:8cm; height:6.79cm;""><p>What type of rock is this?</p>","7","class_response","0","test","48","Pumice","Pumice","16","true","8","8","",""
"","","","","","","","","","","","html-keyboard-response","102","2.0.0","319903","5aee513f3606ab0001b92b29","2","14","null","","","","","","","","","<p style='font-size: 30px;'><strong>Okay</strong></p>","null","neutral_feedback","0","test","48","","","","","","","",""
"","","","","","","","","","","","instructions","103","2.0.0","343476","5aee513f3606ab0001b92b29","2","14","23549","","","","","","","","[{""page_index"":0,""viewing_time"":14093},{""page_index"":1,""viewing_time"":4339},{""page_index"":2,""viewing_time"":5117}]","","","","","","","","","","","","","",""
"","","","","","","","","","","","html-button-response","104","2.0.0","346557","5aee513f3606ab0001b92b29","2","14","3080","","","","","","","","","","0","start_train","","","","","","","","","","",""
"","","","","","","","","","","","html-button-response","105","2.0.0","356865","5aee513f3606ab0001b92b29","2","14","10308","","","","","","","","","<img src= ""rock_img/I_Pumice_13.jpg"" style=""width:8cm; height:8.200000000000001cm;""><p>What type of rock is this?</p>","3","class_response","1","train","1","Gabbro","Pumice","13","false","4","8","",""
"","","","","","","","","","","","html-button-response","106","2.0.0","359464","5aee513f3606ab0001b92b29","2","14","2597","","","","","","","","","<img src= rock_img/I_Pumice_13.jpg style=""width:8cm; height:8.200000000000001cm;""><p style='font-size: 30px; color: red;'><strong>Incorrect!</strong></p><p style='font-size: 30px;'><strong>This rock is pumice</strong></p>","0","corr_feedback","1","train","1","","","","","","","",""
"","","","","","","","","","","","html-button-response","107","2.0.0","364125","5aee513f3606ab0001b92b29","2","14","4660","","","","","","","","","<img src= ""rock_img/I_Andesite_10.jpg"" style=""width:8cm; height:4.16cm;""><p>What type of rock is this?</p>","6","class_response","1","train","2","Peridotite","Andesite","10","false","7","1","",""
"","","","","","","","","","","","html-button-response","108","2.0.0","365990","5aee513f3606ab0001b92b29","2","14","1864","","","","","","","","","<img src= rock_img/I_Andesite_10.jpg style=""width:8cm; height:4.16cm;""><p style='font-size: 30px; color: red;'><strong>Incorrect!</strong></p><p style='font-size: 30px;'><strong>This rock is andesite</strong></p>","0","corr_feedback","1","train","2","","","","","","","",""
"","","","","","","","","","","","html-button-response","109","2.0.0","371699","5aee513f3606ab0001b92b29","2","14","5708","","","","","","","","","<img src= ""rock_img/I_Basalt_05.jpg"" style=""width:8cm; height:8.18cm;""><p>What type of rock is this?</p>","5","class_response","1","train","3","Pegmatite","Basalt","05","false","6","2","",""
"","","","","","","","","","","","html-button-response","110","2.0.0","372861","5aee513f3606ab0001b92b29","2","14","1161","","","","","","","","","<img src= rock_img/I_Basalt_05.jpg style=""width:8cm; height:8.18cm;""><p style='font-size: 30px; color: red;'><strong>Incorrect!</strong></p><p style='font-size: 30px;'><strong>This rock is basalt</strong></p>","0","corr_feedback","1","train","3","","","","","","","",""
"","","","","","","","","","","","html-button-response","111","2.0.0","375840","5aee513f3606ab0001b92b29","2","14","2978","","","","","","","","","<img src= ""rock_img/I_Diorite_02.jpg"" style=""width:8cm; height:6.27cm;""><p>What type of rock is this?</p>","2","class_response","1","train","4","Diorite","Diorite","02","true","3","3","",""
"","","","","","","","","","","","html-button-response","112","2.0.0","377536","5aee513f3606ab0001b92b29","2","14","1695","","","","","","","","","<img src= rock_img/I_Diorite_02.jpg style=""width:8cm; height:6.27cm;""><p style='font-size: 30px; color: green;'><strong>Correct!</strong></p><p style='font-size: 30px;'><strong>This rock is diorite</strong></p>","0","corr_feedback","1","train","4","","","","","","","",""
"","","","","","","","","","","","html-button-response","113","2.0.0","380435","5aee513f3606ab0001b92b29","2","14","2897","","","","","","","","","<img src= ""rock_img/I_Gabbro_13.jpg"" style=""width:8cm; height:5.08cm;""><p>What type of rock is this?</p>","3","class_response","1","train","5","Gabbro","Gabbro","13","true","4","4","",""
"","","","","","","","","","","","html-button-response","114","2.0.0","382177","5aee513f3606ab0001b92b29","2","14","1741","","","","","","","","","<img src= rock_img/I_Gabbro_13.jpg style=""width:8cm; height:5.08cm;""><p style='font-size: 30px; color: green;'><strong>Correct!</strong></p><p style='font-size: 30px;'><strong>This rock is gabbro</strong></p>","0","corr_feedback","1","train","5","","","","","","","",""
"","","","","","","","","","","","html-button-response","115","2.0.0","386012","5aee513f3606ab0001b92b29","2","14","3834","","","","","","","","","<img src= ""rock_img/I_Gabbro_01.jpg"" style=""width:8cm; height:5.21cm;""><p>What type of rock is this?</p>","5","class_response","1","train","6","Pegmatite","Gabbro","01","false","6","4","",""
"","","","","","","","","","","","html-button-response","116","2.0.0","386932","5aee513f3606ab0001b92b29","2","14","920","","","","","","","","","<img src= rock_img/I_Gabbro_01.jpg style=""width:8cm; height:5.21cm;""><p style='font-size: 30px; color: red;'><strong>Incorrect!</strong></p><p style='font-size: 30px;'><strong>This rock is gabbro</strong></p>","0","corr_feedback","1","train","6","","","","","","","",""
"","","","","","","","","","","","html-button-response","117","2.0.0","390926","5aee513f3606ab0001b92b29","2","14","3992","","","","","","","","","<img src= ""rock_img/I_Basalt_04.jpg"" style=""width:8cm; height:7.53cm;""><p>What type of rock is this?</p>","4","class_response","1","train","7","Obsidian","Basalt","04","false","5","2","",""
"","","","","","","","","","","","html-button-response","118","2.0.0","391749","5aee513f3606ab0001b92b29","2","14","822","","","","","","","","","<img src= rock_img/I_Basalt_04.jpg style=""width:8cm; height:7.53cm;""><p style='font-size: 30px; color: red;'><strong>Incorrect!</strong></p><p style='font-size: 30px;'><strong>This rock is basalt</strong></p>","0","corr_feedback","1","train","7","","","","","","","",""
"","","","","","","","","","","","html-button-response","119","2.0.0","393282","5aee513f3606ab0001b92b29","2","14","1532","","","","","","","","","<img src= ""rock_img/I_Gabbro_03.jpg"" style=""width:8cm; height:8.52cm;""><p>What type of rock is this?</p>","2","class_response","1","train","8","Diorite","Gabbro","03","false","3","4","",""
"","","","","","","","","","","","html-button-response","120","2.0.0","394503","5aee513f3606ab0001b92b29","2","14","1220","","","","","","","","","<img src= rock_img/I_Gabbro_03.jpg style=""width:8cm; height:8.52cm;""><p style='font-size: 30px; color: red;'><strong>Incorrect!</strong></p><p style='font-size: 30px;'><strong>This rock is gabbro</strong></p>","0","corr_feedback","1","train","8","","","","","","","",""
"","","","","","","","","","","","html-button-response","121","2.0.0","399173","5aee513f3606ab0001b92b29","2","14","4668","","","","","","","","","<img src= ""rock_img/I_Andesite_04.jpg"" style=""width:8cm; height:5.96cm;""><p>What type of rock is this?</p>","1","class_response","1","train","9","Basalt","Andesite","04","false","2","1","",""
"","","","","","","","","","","","html-button-response","122","2.0.0","400044","5aee513f3606ab0001b92b29","2","14","870","","","","","","","","","<img src= rock_img/I_Andesite_04.jpg style=""width:8cm; height:5.96cm;""><p style='font-size: 30px; color: red;'><strong>Incorrect!</strong></p><p style='font-size: 30px;'><strong>This rock is andesite</strong></p>","0","corr_feedback","1","train","9","","","","","","","",""
"","","","","","","","","","","","html-button-response","123","2.0.0","405389","5aee513f3606ab0001b92b29","2","14","5344","","","","","","","","","<img src= ""rock_img/I_Basalt_01.jpg"" style=""width:8cm; height:7.880000000000001cm;""><p>What type of rock is this?</p>","1","class_response","1","train","10","Basalt","Basalt","01","true","2","2","",""
"","","","","","","","","","","","html-button-response","124","2.0.0","406249","5aee513f3606ab0001b92b29","2","14","859","","","","","","","","","<img src= rock_img/I_Basalt_01.jpg style=""width:8cm; height:7.880000000000001cm;""><p style='font-size: 30px; color: green;'><strong>Correct!</strong></p><p style='font-size: 30px;'><strong>This rock is basalt</strong></p>","0","corr_feedback","1","train","10","","","","","","","",""
"","","","","","","","","","","","html-button-response","125","2.0.0","409699","5aee513f3606ab0001b92b29","2","14","3448","","","","","","","","","<img src= ""rock_img/I_Pumice_10.jpg"" style=""width:8cm; height:7.609999999999999cm;""><p>What type of rock is this?</p>","7","class_response","1","train","11","Pumice","Pumice","10","true","8","8","",""
"","","","","","","","","","","","html-button-response","126","2.0.0","410729","5aee513f3606ab0001b92b29","2","14","1028","","","","","","","","","<img src= rock_img/I_Pumice_10.jpg style=""width:8cm; height:7.609999999999999cm;""><p style='font-size: 30px; color: green;'><strong>Correct!</strong></p><p style='font-size: 30px;'><strong>This rock is pumice</strong></p>","0","corr_feedback","1","train","11","","","","","","","",""
"","","","","","","","","","","","html-button-response","127","2.0.0","412771","5aee513f3606ab0001b92b29","2","14","2042","","","","","","","","","<img src= ""rock_img/I_Gabbro_09.jpg"" style=""width:8cm; height:7.279999999999999cm;""><p>What type of rock is this?</p>","4","class_response","1","train","12","Obsidian","Gabbro","09","false","5","4","",""
"","","","","","","","","","","","html-button-response","128","2.0.0","413603","5aee513f3606ab0001b92b29","2","14","831","","","","","","","","","<img src= rock_img/I_Gabbro_09.jpg style=""width:8cm; height:7.279999999999999cm;""><p style='font-size: 30px; color: red;'><strong>Incorrect!</strong></p><p style='font-size: 30px;'><strong>This rock is gabbro</strong></p>","0","corr_feedback","1","train","12","","","","","","","",""
"","","","","","","","","","","","html-button-response","129","2.0.0","416536","5aee513f3606ab0001b92b29","2","14","2932","","","","","","","","","<img src= ""rock_img/I_Pumice_03.jpg"" style=""width:8cm; height:6.64cm;""><p>What type of rock is this?</p>","1","class_response","1","train","13","Basalt","Pumice","03","false","2","8","",""
"","","","","","","","","","","","html-button-response","130","2.0.0","417269","5aee513f3606ab0001b92b29","2","14","732","","","","","","","","","<img src= rock_img/I_Pumice_03.jpg style=""width:8cm; height:6.64cm;""><p style='font-size: 30px; color: red;'><strong>Incorrect!</strong></p><p style='font-size: 30px;'><strong>This rock is pumice</strong></p>","0","corr_feedback","1","train","13","","","","","","","",""
"","","","","","","","","","","","html-button-response","131","2.0.0","420129","5aee513f3606ab0001b92b29","2","14","2859","","","","","","","","","<img src= ""rock_img/I_Diorite_13.jpg"" style=""width:8cm; height:6.29cm;""><p>What type of rock is this?</p>","5","class_response","1","train","14","Pegmatite","Diorite","13","false","6","3","",""
"","","","","","","","","","","","html-button-response","132","2.0.0","420964","5aee513f3606ab0001b92b29","2","14","834","","","","","","","","","<img src= rock_img/I_Diorite_13.jpg style=""width:8cm; height:6.29cm;""><p style='font-size: 30px; color: red;'><strong>Incorrect!</strong></p><p style='font-size: 30px;'><strong>This rock is diorite</strong></p>","0","corr_feedback","1","train","14","","","","","","","",""
"","","","","","","","","","","","html-button-response","133","2.0.0","425506","5aee513f3606ab0001b92b29","2","14","4540","","","","","","","","","<img src= ""rock_img/I_Pegmatite_07.jpg"" style=""width:8cm; height:6.7cm;""><p>What type of rock is this?</p>","6","class_response","1","train","15","Peridotite","Pegmatite","07","false","7","6","",""
"","","","","","","","","","","","html-button-response","134","2.0.0","426484","5aee513f3606ab0001b92b29","2","14","975","","","","","","","","","<img src= rock_img/I_Pegmatite_07.jpg style=""width:8cm; height:6.7cm;""><p style='font-size: 30px; color: red;'><strong>Incorrect!</strong></p><p style='font-size: 30px;'><strong>This rock is pegmatite</strong></p>","0","corr_feedback","1","train","15","","","","","","","",""
"","","","","","","","","","","","html-button-response","135","2.0.0","429128","5aee513f3606ab0001b92b29","2","14","2643","","","","","","","","","<img src= ""rock_img/I_Andesite_09.jpg"" style=""width:8cm; height:6cm;""><p>What type of rock is this?</p>","1","class_response","1","train","16","Basalt","Andesite","09","false","2","1","",""
"","","","","","","","","","","","html-button-response","136","2.0.0","429898","5aee513f3606ab0001b92b29","2","14","767","","","","","","","","","<img src= rock_img/I_Andesite_09.jpg style=""width:8cm; height:6cm;""><p style='font-size: 30px; color: red;'><strong>Incorrect!</strong></p><p style='font-size: 30px;'><strong>This rock is andesite</strong></p>","0","corr_feedback","1","train","16","","","","","","","",""
"","","","","","","","","","","","html-button-response","137","2.0.0","432292","5aee513f3606ab0001b92b29","2","14","2392","","","","","","","","","<img src= ""rock_img/I_Gabbro_11.jpg"" style=""width:8cm; height:6.2cm;""><p>What type of rock is this?</p>","1","class_response","1","train","17","Basalt","Gabbro","11","false","2","4","",""
"","","","","","","","","","","","html-button-response","138","2.0.0","432999","5aee513f3606ab0001b92b29","2","14","706","","","","","","","","","<img src= rock_img/I_Gabbro_11.jpg style=""width:8cm; height:6.2cm;""><p style='font-size: 30px; color: red;'><strong>Incorrect!</strong></p><p style='font-size: 30px;'><strong>This rock is gabbro</strong></p>","0","corr_feedback","1","train","17","","","","","","","",""
"","","","","","","","","","","","html-button-response","139","2.0.0","435478","5aee513f3606ab0001b92b29","2","14","2478","","","","","","","","","<img src= ""rock_img/I_Pegmatite_10.jpg"" style=""width:8cm; height:4.16cm;""><p>What type of rock is this?</p>","6","class_response","1","train","18","Peridotite","Pegmatite","10","false","7","6","",""
"","","","","","","","","","","","html-button-response","140","2.0.0","436362","5aee513f3606ab0001b92b29","2","14","883","","","","","","","","","<img src= rock_img/I_Pegmatite_10.jpg style=""width:8cm; height:4.16cm;""><p style='font-size: 30px; color: red;'><strong>Incorrect!</strong></p><p style='font-size: 30px;'><strong>This rock is pegmatite</strong></p>","0","corr_feedback","1","train","18","","","","","","","",""
"","","","","","","","","","","","html-button-response","141","2.0.0","438106","5aee513f3606ab0001b92b29","2","14","1744","","","","","","","","","<img src= ""rock_img/I_Obsidian_08.jpg"" style=""width:8cm; height:7.39cm;""><p>What type of rock is this?</p>","4","class_response","1","train","19","Obsidian","Obsidian","08","true","5","5","",""
"","","","","","","","","","","","html-button-response","142","2.0.0","438815","5aee513f3606ab0001b92b29","2","14","707","","","","","","","","","<img src= rock_img/I_Obsidian_08.jpg style=""width:8cm; height:7.39cm;""><p style='font-size: 30px; color: green;'><strong>Correct!</strong></p><p style='font-size: 30px;'><strong>This rock is obsidian</strong></p>","0","corr_feedback","1","train","19","","","","","","","",""
"","","","","","","","","","","","html-button-response","143","2.0.0","444209","5aee513f3606ab0001b92b29","2","14","5393","","","","","","","","","<img src= ""rock_img/I_Peridotite_08.jpg"" style=""width:8cm; height:6.7cm;""><p>What type of rock is this?</p>","3","class_response","1","train","20","Gabbro","Peridotite","08","false","4","7","",""
"","","","","","","","","","","","html-button-response","144","2.0.0","445012","5aee513f3606ab0001b92b29","2","14","801","","","","","","","","","<img src= rock_img/I_Peridotite_08.jpg style=""width:8cm; height:6.7cm;""><p style='font-size: 30px; color: red;'><strong>Incorrect!</strong></p><p style='font-size: 30px;'><strong>This rock is peridotite</strong></p>","0","corr_feedback","1","train","20","","","","","","","",""
"","","","","","","","","","","","html-button-response","145","2.0.0","446335","5aee513f3606ab0001b92b29","2","14","1322","","","","","","","","","<img src= ""rock_img/I_Obsidian_04.jpg"" style=""width:8cm; height:6.930000000000001cm;""><p>What type of rock is this?</p>","4","class_response","1","train","21","Obsidian","Obsidian","04","true","5","5","",""
"","","","","","","","","","","","html-button-response","146","2.0.0","447001","5aee513f3606ab0001b92b29","2","14","665","","","","","","","","","<img src= rock_img/I_Obsidian_04.jpg style=""width:8cm; height:6.930000000000001cm;""><p style='font-size: 30px; color: green;'><strong>Correct!</strong></p><p style='font-size: 30px;'><strong>This rock is obsidian</strong></p>","0","corr_feedback","1","train","21","","","","","","","",""
"","","","","","","","","","","","html-button-response","147","2.0.0","448701","5aee513f3606ab0001b92b29","2","14","1699","","","","","","","","","<img src= ""rock_img/I_Obsidian_16.jpg"" style=""width:8cm; height:9.3cm;""><p>What type of rock is this?</p>","4","class_response","1","train","22","Obsidian","Obsidian","16","true","5","5","",""
"","","","","","","","","","","","html-button-response","148","2.0.0","449274","5aee513f3606ab0001b92b29","2","14","571","","","","","","","","","<img src= rock_img/I_Obsidian_16.jpg style=""width:8cm; height:9.3cm;""><p style='font-size: 30px; color: green;'><strong>Correct!</strong></p><p style='font-size: 30px;'><strong>This rock is obsidian</strong></p>","0","corr_feedback","1","train","22","","","","","","","",""
"","","","","","","","","","","","html-button-response","149","2.0.0","451725","5aee513f3606ab0001b92b29","2","14","2450","","","","","","","","","<img src= ""rock_img/I_Diorite_08.jpg"" style=""width:8cm; height:6.37cm;""><p>What type of rock is this?</p>","2","class_response","1","train","23","Diorite","Diorite","08","true","3","3","",""
"","","","","","","","","","","","html-button-response","150","2.0.0","452404","5aee513f3606ab0001b92b29","2","14","677","","","","","","","","","<img src= rock_img/I_Diorite_08.jpg style=""width:8cm; height:6.37cm;""><p style='font-size: 30px; color: green;'><strong>Correct!</strong></p><p style='font-size: 30px;'><strong>This rock is diorite</strong></p>","0","corr_feedback","1","train","23","","","","","","","",""
"","","","","","","","","","","","html-button-response","151","2.0.0","454095","5aee513f3606ab0001b92b29","2","14","1690","","","","","","","","","<img src= ""rock_img/I_Diorite_15.jpg"" style=""width:8cm; height:5.54cm;""><p>What type of rock is this?</p>","0","class_response","1","train","24","Andesite","Diorite","15","false","1","3","",""
"","","","","","","","","","","","html-button-response","152","2.0.0","454748","5aee513f3606ab0001b92b29","2","14","653","","","","","","","","","<img src= rock_img/I_Diorite_15.jpg style=""width:8cm; height:5.54cm;""><p style='font-size: 30px; color: red;'><strong>Incorrect!</strong></p><p style='font-size: 30px;'><strong>This rock is diorite</strong></p>","0","corr_feedback","1","train","24","","","","","","","",""
"","","","","","","","","","","","html-button-response","153","2.0.0","458577","5aee513f3606ab0001b92b29","2","14","3828","","","","","","","","","<img src= ""rock_img/I_Basalt_11.jpg"" style=""width:8cm; height:5.359999999999999cm;""><p>What type of rock is this?</p>","7","class_response","1","train","25","Pumice","Basalt","11","false","8","2","",""
"","","","","","","","","","","","html-button-response","154","2.0.0","459498","5aee513f3606ab0001b92b29","2","14","919","","","","","","","","","<img src= rock_img/I_Basalt_11.jpg style=""width:8cm; height:5.359999999999999cm;""><p style='font-size: 30px; color: red;'><strong>Incorrect!</strong></p><p style='font-size: 30px;'><strong>This rock is basalt</strong></p>","0","corr_feedback","1","train","25","","","","","","","",""
"","","","","","","","","","","","html-button-response","155","2.0.0","462360","5aee513f3606ab0001b92b29","2","14","2861","","","","","","","","","<img src= ""rock_img/I_Peridotite_06.jpg"" style=""width:8cm; height:7.53cm;""><p>What type of rock is this?</p>","6","class_response","1","train","26","Peridotite","Peridotite","06","true","7","7","",""
"","","","","","","","","","","","html-button-response","156","2.0.0","463346","5aee513f3606ab0001b92b29","2","14","984","","","","","","","","","<img src= rock_img/I_Peridotite_06.jpg style=""width:8cm; height:7.53cm;""><p style='font-size: 30px; color: green;'><strong>Correct!</strong></p><p style='font-size: 30px;'><strong>This rock is peridotite</strong></p>","0","corr_feedback","1","train","26","","","","","","","",""
"","","","","","","","","","","","html-button-response","157","2.0.0","467559","5aee513f3606ab0001b92b29","2","14","4212","","","","","","","","","<img src= ""rock_img/I_Basalt_05.jpg"" style=""width:8cm; height:8.18cm;""><p>What type of rock is this?</p>","1","class_response","1","train","27","Basalt","Basalt","05","true","2","2","",""
"","","","","","","","","","","","html-button-response","158","2.0.0","468338","5aee513f3606ab0001b92b29","2","14","778","","","","","","","","","<img src= rock_img/I_Basalt_05.jpg style=""width:8cm; height:8.18cm;""><p style='font-size: 30px; color: green;'><strong>Correct!</strong></p><p style='font-size: 30px;'><strong>This rock is basalt</strong></p>","0","corr_feedback","1","train","27","","","","","","","",""
"","","","","","","","","","","","html-button-response","159","2.0.0","475115","5aee513f3606ab0001b92b29","2","14","6775","","","","","","","","","<img src= ""rock_img/I_Pegmatite_11.jpg"" style=""width:8cm; height:8.14cm;""><p>What type of rock is this?</p>","6","class_response","1","train","28","Peridotite","Pegmatite","11","false","7","6","",""
"","","","","","","","","","","","html-button-response","160","2.0.0","476047","5aee513f3606ab0001b92b29","2","14","932","","","","","","","","","<img src= rock_img/I_Pegmatite_11.jpg style=""width:8cm; height:8.14cm;""><p style='font-size: 30px; color: red;'><strong>Incorrect!</strong></p><p style='font-size: 30px;'><strong>This rock is pegmatite</strong></p>","0","corr_feedback","1","train","28","","","","","","","",""
"","","","","","","","","","","","html-button-response","161","2.0.0","481679","5aee513f3606ab0001b92b29","2","14","5630","","","","","","","","","<img src= ""rock_img/I_Peridotite_04.jpg"" style=""width:8cm; height:6.680000000000001cm;""><p>What type of rock is this?</p>","6","class_response","1","train","29","Peridotite","Peridotite","04","true","7","7","",""
"","","","","","","","","","","","html-button-response","162","2.0.0","482424","5aee513f3606ab0001b92b29","2","14","744","","","","","","","","","<img src= rock_img/I_Peridotite_04.jpg style=""width:8cm; height:6.680000000000001cm;""><p style='font-size: 30px; color: green;'><strong>Correct!</strong></p><p style='font-size: 30px;'><strong>This rock is peridotite</strong></p>","0","corr_feedback","1","train","29","","","","","","","",""
"","","","","","","","","","","","html-button-response","163","2.0.0","487759","5aee513f3606ab0001b92b29","2","14","5334","","","","","","","","","<img src= ""rock_img/I_Pegmatite_06.jpg"" style=""width:8cm; height:5.17cm;""><p>What type of rock is this?</p>","1","class_response","1","train","30","Basalt","Pegmatite","06","false","2","6","",""
"","","","","","","","","","","","html-button-response","164","2.0.0","488434","5aee513f3606ab0001b92b29","2","14","675","","","","","","","","","<img src= rock_img/I_Pegmatite_06.jpg style=""width:8cm; height:5.17cm;""><p style='font-size: 30px; color: red;'><strong>Incorrect!</strong></p><p style='font-size: 30px;'><strong>This rock is pegmatite</strong></p>","0","corr_feedback","1","train","30","","","","","","","",""
"","","","","","","","","","","","html-button-response","165","2.0.0","489635","5aee513f3606ab0001b92b29","2","14","1200","","","","","","","","","<img src= ""rock_img/I_Peridotite_07.jpg"" style=""width:8cm; height:4.83cm;""><p>What type of rock is this?</p>","1","class_response","1","train","31","Basalt","Peridotite","07","false","2","7","",""
"","","","","","","","","","","","html-button-response","166","2.0.0","490234","5aee513f3606ab0001b92b29","2","14","597","","","","","","","","","<img src= rock_img/I_Peridotite_07.jpg style=""width:8cm; height:4.83cm;""><p style='font-size: 30px; color: red;'><strong>Incorrect!</strong></p><p style='font-size: 30px;'><strong>This rock is peridotite</strong></p>","0","corr_feedback","1","train","31","","","","","","","",""
"","","","","","","","","","","","html-button-response","167","2.0.0","492997","5aee513f3606ab0001b92b29","2","14","2761","","","","","","","","","<img src= ""rock_img/I_Pumice_08.jpg"" style=""width:8cm; height:6.67cm;""><p>What type of rock is this?</p>","7","class_response","1","train","32","Pumice","Pumice","08","true","8","8","",""
"","","","","","","","","","","","html-button-response","168","2.0.0","493732","5aee513f3606ab0001b92b29","2","14","734","","","","","","","","","<img src= rock_img/I_Pumice_08.jpg style=""width:8cm; height:6.67cm;""><p style='font-size: 30px; color: green;'><strong>Correct!</strong></p><p style='font-size: 30px;'><strong>This rock is pumice</strong></p>","0","corr_feedback","1","train","32","","","","","","","",""
"","","","","","","","","","","","html-button-response","169","2.0.0","497188","5aee513f3606ab0001b92b29","2","14","3455","","","","","","","","","<img src= ""rock_img/I_Peridotite_02.jpg"" style=""width:8cm; height:5.859999999999999cm;""><p>What type of rock is this?</p>","5","class_response","1","train","33","Pegmatite","Peridotite","02","false","6","7","",""
"","","","","","","","","","","","html-button-response","170","2.0.0","497928","5aee513f3606ab0001b92b29","2","14","738","","","","","","","","","<img src= rock_img/I_Peridotite_02.jpg style=""width:8cm; height:5.859999999999999cm;""><p style='font-size: 30px; color: red;'><strong>Incorrect!</strong></p><p style='font-size: 30px;'><strong>This rock is peridotite</strong></p>","0","corr_feedback","1","train","33","","","","","","","",""
"","","","","","","","","","","","html-button-response","171","2.0.0","499281","5aee513f3606ab0001b92b29","2","14","1353","","","","","","","","","<img src= ""rock_img/I_Obsidian_11.jpg"" style=""width:8cm; height:6.05cm;""><p>What type of rock is this?</p>","4","class_response","1","train","34","Obsidian","Obsidian","11","true","5","5","",""
"","","","","","","","","","","","html-button-response","172","2.0.0","499799","5aee513f3606ab0001b92b29","2","14","516","","","","","","","","","<img src= rock_img/I_Obsidian_11.jpg style=""width:8cm; height:6.05cm;""><p style='font-size: 30px; color: green;'><strong>Correct!</strong></p><p style='font-size: 30px;'><strong>This rock is obsidian</strong></p>","0","corr_feedback","1","train","34","","","","","","","",""
"","","","","","","","","","","","html-button-response","173","2.0.0","502553","5aee513f3606ab0001b92b29","2","14","2754","","","","","","","","","<img src= ""rock_img/I_Basalt_01.jpg"" style=""width:8cm; height:7.880000000000001cm;""><p>What type of rock is this?</p>","0","class_response","1","train","35","Andesite","Basalt","01","false","1","2","",""
"","","","","","","","","","","","html-button-response","174","2.0.0","503678","5aee513f3606ab0001b92b29","2","14","1123","","","","","","","","","<img src= rock_img/I_Basalt_01.jpg style=""width:8cm; height:7.880000000000001cm;""><p style='font-size: 30px; color: red;'><strong>Incorrect!</strong></p><p style='font-size: 30px;'><strong>This rock is basalt</strong></p>","0","corr_feedback","1","train","35","","","","","","","",""
"","","","","","","","","","","","html-button-response","175","2.0.0","504853","5aee513f3606ab0001b92b29","2","14","1173","","","","","","","","","<img src= ""rock_img/I_Diorite_07.jpg"" style=""width:8cm; height:5.239999999999999cm;""><p>What type of rock is this?</p>","2","class_response","1","train","36","Diorite","Diorite","07","true","3","3","",""
"","","","","","","","","","","","html-button-response","176","2.0.0","505412","5aee513f3606ab0001b92b29","2","14","556","","","","","","","","","<img src= rock_img/I_Diorite_07.jpg style=""width:8cm; height:5.239999999999999cm;""><p style='font-size: 30px; color: green;'><strong>Correct!</strong></p><p style='font-size: 30px;'><strong>This rock is diorite</strong></p>","0","corr_feedback","1","train","36","","","","","","","",""
"","","","","","","","","","","","html-button-response","177","2.0.0","506502","5aee513f3606ab0001b92b29","2","14","1089","","","","","","","","","<img src= ""rock_img/I_Pegmatite_12.jpg"" style=""width:8cm; height:5.7cm;""><p>What type of rock is this?</p>","2","class_response","1","train","37","Diorite","Pegmatite","12","false","3","6","",""
"","","","","","","","","","","","html-button-response","178","2.0.0","507221","5aee513f3606ab0001b92b29","2","14","718","","","","","","","","","<img src= rock_img/I_Pegmatite_12.jpg style=""width:8cm; height:5.7cm;""><p style='font-size: 30px; color: red;'><strong>Incorrect!</strong></p><p style='font-size: 30px;'><strong>This rock is pegmatite</strong></p>","0","corr_feedback","1","train","37","","","","","","","",""
"","","","","","","","","","","","html-button-response","179","2.0.0","510225","5aee513f3606ab0001b92b29","2","14","3002","","","","","","","","","<img src= ""rock_img/I_Andesite_06.jpg"" style=""width:8cm; height:6.840000000000001cm;""><p>What type of rock is this?</p>","1","class_response","1","train","38","Basalt","Andesite","06","false","2","1","",""
"","","","","","","","","","","","html-button-response","180","2.0.0","510812","5aee513f3606ab0001b92b29","2","14","586","","","","","","","","","<img src= rock_img/I_Andesite_06.jpg style=""width:8cm; height:6.840000000000001cm;""><p style='font-size: 30px; color: red;'><strong>Incorrect!</strong></p><p style='font-size: 30px;'><strong>This rock is andesite</strong></p>","0","corr_feedback","1","train","38","","","","","","","",""
"","","","","","","","","","","","html-button-response","181","2.0.0","512598","5aee513f3606ab0001b92b29","2","14","1785","","","","","","","","","<img src= ""rock_img/I_Diorite_09.jpg"" style=""width:8cm; height:5.27cm;""><p>What type of rock is this?</p>","1","class_response","1","train","39","Basalt","Diorite","09","false","2","3","",""
"","","","","","","","","","","","html-button-response","182","2.0.0","513172","5aee513f3606ab0001b92b29","2","14","573","","","","","","","","","<img src= rock_img/I_Diorite_09.jpg style=""width:8cm; height:5.27cm;""><p style='font-size: 30px; color: red;'><strong>Incorrect!</strong></p><p style='font-size: 30px;'><strong>This rock is diorite</strong></p>","0","corr_feedback","1","train","39","","","","","","","",""
"","","","","","","","","","","","html-button-response","183","2.0.0","514332","5aee513f3606ab0001b92b29","2","14","1159","","","","","","","","","<img src= ""rock_img/I_Andesite_07.jpg"" style=""width:8cm; height:5.93cm;""><p>What type of rock is this?</p>","2","class_response","1","train","40","Diorite","Andesite","07","false","3","1","",""
"","","","","","","","","","","","html-button-response","184","2.0.0","514957","5aee513f3606ab0001b92b29","2","14","623","","","","","","","","","<img src= rock_img/I_Andesite_07.jpg style=""width:8cm; height:5.93cm;""><p style='font-size: 30px; color: red;'><strong>Incorrect!</strong></p><p style='font-size: 30px;'><strong>This rock is andesite</strong></p>","0","corr_feedback","1","train","40","","","","","","","",""
"","","","","","","","","","","","html-button-response","185","2.0.0","517430","5aee513f3606ab0001b92b29","2","14","2472","","","","","","","","","<img src= ""rock_img/I_Basalt_12.jpg"" style=""width:8cm; height:6.010000000000001cm;""><p>What type of rock is this?</p>","7","class_response","1","train","41","Pumice","Basalt","12","false","8","2","",""
"","","","","","","","","","","","html-button-response","186","2.0.0","518147","5aee513f3606ab0001b92b29","2","14","716","","","","","","","","","<img src= rock_img/I_Basalt_12.jpg style=""width:8cm; height:6.010000000000001cm;""><p style='font-size: 30px; color: red;'><strong>Incorrect!</strong></p><p style='font-size: 30px;'><strong>This rock is basalt</strong></p>","0","corr_feedback","1","train","41","","","","","","","",""
"","","","","","","","","","","","html-button-response","187","2.0.0","519764","5aee513f3606ab0001b92b29","2","14","1615","","","","","","","","","<img src= ""rock_img/I_Pumice_02.jpg"" style=""width:8cm; height:7.3999999999999995cm;""><p>What type of rock is this?</p>","7","class_response","1","train","42","Pumice","Pumice","02","true","8","8","",""
"","","","","","","","","","","","html-button-response","188","2.0.0","520369","5aee513f3606ab0001b92b29","2","14","604","","","","","","","","","<img src= rock_img/I_Pumice_02.jpg style=""width:8cm; height:7.3999999999999995cm;""><p style='font-size: 30px; color: green;'><strong>Correct!</strong></p><p style='font-size: 30px;'><strong>This rock is pumice</strong></p>","0","corr_feedback","1","train","42","","","","","","","",""
"","","","","","","","","","","","html-button-response","189","2.0.0","525463","5aee513f3606ab0001b92b29","2","14","5093","","","","","","","","","<img src= ""rock_img/I_Andesite_01.jpg"" style=""width:8cm; height:5.87cm;""><p>What type of rock is this?</p>","6","class_response","1","train","43","Peridotite","Andesite","01","false","7","1","",""
"","","","","","","","","","","","html-button-response","190","2.0.0","526172","5aee513f3606ab0001b92b29","2","14","707","","","","","","","","","<img src= rock_img/I_Andesite_01.jpg style=""width:8cm; height:5.87cm;""><p style='font-size: 30px; color: red;'><strong>Incorrect!</strong></p><p style='font-size: 30px;'><strong>This rock is andesite</strong></p>","0","corr_feedback","1","train","43","","","","","","","",""
"","","","","","","","","","","","html-button-response","191","2.0.0","528252","5aee513f3606ab0001b92b29","2","14","2079","","","","","","","","","<img src= ""rock_img/I_Peridotite_12.jpg"" style=""width:8cm; height:4.54cm;""><p>What type of rock is this?</p>","2","class_response","1","train","44","Diorite","Peridotite","12","false","3","7","",""
"","","","","","","","","","","","html-button-response","192","2.0.0","529017","5aee513f3606ab0001b92b29","2","14","764","","","","","","","","","<img src= rock_img/I_Peridotite_12.jpg style=""width:8cm; height:4.54cm;""><p style='font-size: 30px; color: red;'><strong>Incorrect!</strong></p><p style='font-size: 30px;'><strong>This rock is peridotite</strong></p>","0","corr_feedback","1","train","44","","","","","","","",""
"","","","","","","","","","","","html-button-response","193","2.0.0","531775","5aee513f3606ab0001b92b29","2","14","2757","","","","","","","","","<img src= ""rock_img/I_Pegmatite_15.jpg"" style=""width:8cm; height:6cm;""><p>What type of rock is this?</p>","6","class_response","1","train","45","Peridotite","Pegmatite","15","false","7","6","",""
"","","","","","","","","","","","html-button-response","194","2.0.0","532570","5aee513f3606ab0001b92b29","2","14","793","","","","","","","","","<img src= rock_img/I_Pegmatite_15.jpg style=""width:8cm; height:6cm;""><p style='font-size: 30px; color: red;'><strong>Incorrect!</strong></p><p style='font-size: 30px;'><strong>This rock is pegmatite</strong></p>","0","corr_feedback","1","train","45","","","","","","","",""
"","","","","","","","","","","","html-button-response","195","2.0.0","537574","5aee513f3606ab0001b92b29","2","14","5001","","","","","","","","","<img src= ""rock_img/I_Andesite_09.jpg"" style=""width:8cm; height:6cm;""><p>What type of rock is this?</p>","1","class_response","1","train","46","Basalt","Andesite","09","false","2","1","",""
"","","","","","","","","","","","html-button-response","196","2.0.0","538237","5aee513f3606ab0001b92b29","2","14","663","","","","","","","","","<img src= rock_img/I_Andesite_09.jpg style=""width:8cm; height:6cm;""><p style='font-size: 30px; color: red;'><strong>Incorrect!</strong></p><p style='font-size: 30px;'><strong>This rock is andesite</strong></p>","0","corr_feedback","1","train","46","","","","","","","",""
"","","","","","","","","","","","html-button-response","197","2.0.0","541047","5aee513f3606ab0001b92b29","2","14","2809","","","","","","","","","<img src= ""rock_img/I_Gabbro_15.jpg"" style=""width:8cm; height:6.29cm;""><p>What type of rock is this?</p>","3","class_response","1","train","47","Gabbro","Gabbro","15","true","4","4","",""
"","","","","","","","","","","","html-button-response","198","2.0.0","542581","5aee513f3606ab0001b92b29","2","14","1533","","","","","","","","","<img src= rock_img/I_Gabbro_15.jpg style=""width:8cm; height:6.29cm;""><p style='font-size: 30px; color: green;'><strong>Correct!</strong></p><p style='font-size: 30px;'><strong>This rock is gabbro</strong></p>","0","corr_feedback","1","train","47","","","","","","","",""
"","","","","","","","","","","","html-button-response","199","2.0.0","544123","5aee513f3606ab0001b92b29","2","14","1541","","","","","","","","","<img src= ""rock_img/I_Basalt_14.jpg"" style=""width:8cm; height:5.82cm;""><p>What type of rock is this?</p>","3","class_response","1","train","48","Gabbro","Basalt","14","false","4","2","",""
"","","","","","","","","","","","html-button-response","200","2.0.0","544768","5aee513f3606ab0001b92b29","2","14","644","","","","","","","","","<img src= rock_img/I_Basalt_14.jpg style=""width:8cm; height:5.82cm;""><p style='font-size: 30px; color: red;'><strong>Incorrect!</strong></p><p style='font-size: 30px;'><strong>This rock is basalt</strong></p>","0","corr_feedback","1","train","48","","","","","","","",""
"","","","","","","","","","","","instructions","203","2.0.0","562904","5aee513f3606ab0001b92b29","2","14","18135","","","","","","","","[{""page_index"":0,""viewing_time"":7844},{""page_index"":1,""viewing_time"":10291}]","","","","","","","","","","","","","",""
"","","","","","","","","","","","html-button-response","204","2.0.0","564776","5aee513f3606ab0001b92b29","2","14","1871","","","","","","","","","","0","start_test","","","","","","","","","","",""
"","","","","","","","","","","","html-button-response","205","2.0.0","568087","5aee513f3606ab0001b92b29","2","14","3309","","","","","","","","","<img src= ""rock_img/I_Peridotite_15.jpg"" style=""width:8cm; height:6cm;""><p>What type of rock is this?</p>","6","class_response","1","test","1","Peridotite","Peridotite","15","true","7","7","",""
"","","","","","","","","","","","html-keyboard-response","206","2.0.0","568591","5aee513f3606ab0001b92b29","2","14","null","","","","","","","","","<p style='font-size: 30px;'><strong>Okay</strong></p>","null","neutral_feedback","1","test","1","","","","","","","",""
"","","","","","","","","","","","html-button-response","207","2.0.0","579850","5aee513f3606ab0001b92b29","2","14","11258","","","","","","","","","<img src= ""rock_img/I_Pegmatite_16.jpg"" style=""width:8cm; height:5.8cm;""><p>What type of rock is this?</p>","6","class_response","1","test","2","Peridotite","Pegmatite","16","false","7","6","",""
"","","","","","","","","","","","html-keyboard-response","208","2.0.0","580362","5aee513f3606ab0001b92b29","2","14","null","","","","","","","","","<p style='font-size: 30px;'><strong>Okay</strong></p>","null","neutral_feedback","1","test","2","","","","","","","",""
"","","","","","","","","","","","html-button-response","209","2.0.0","582348","5aee513f3606ab0001b92b29","2","14","1985","","","","","","","","","<img src= ""rock_img/I_Andesite_16.jpg"" style=""width:8cm; height:6.010000000000001cm;""><p>What type of rock is this?</p>","0","class_response","1","test","3","Andesite","Andesite","16","true","1","1","",""
"","","","","","","","","","","","html-keyboard-response","210","2.0.0","582862","5aee513f3606ab0001b92b29","2","14","null","","","","","","","","","<p style='font-size: 30px;'><strong>Okay</strong></p>","null","neutral_feedback","1","test","3","","","","","","","",""
"","","","","","","","","","","","html-button-response","211","2.0.0","590785","5aee513f3606ab0001b92b29","2","14","7922","","","","","","","","","<img src= ""rock_img/I_Andesite_03.jpg"" style=""width:8cm; height:5.73cm;""><p>What type of rock is this?</p>","0","class_response","1","test","4","Andesite","Andesite","03","true","1","1","",""
"","","","","","","","","","","","html-keyboard-response","212","2.0.0","591298","5aee513f3606ab0001b92b29","2","14","null","","","","","","","","","<p style='font-size: 30px;'><strong>Okay</strong></p>","null","neutral_feedback","1","test","4","","","","","","","",""
"","","","","","","","","","","","html-button-response","213","2.0.0","592417","5aee513f3606ab0001b92b29","2","14","1117","","","","","","","","","<img src= ""rock_img/I_Obsidian_12.jpg"" style=""width:8cm; height:6.53cm;""><p>What type of rock is this?</p>","4","class_response","1","test","5","Obsidian","Obsidian","12","true","5","5","",""
"","","","","","","","","","","","html-keyboard-response","214","2.0.0","592926","5aee513f3606ab0001b92b29","2","14","null","","","","","","","","","<p style='font-size: 30px;'><strong>Okay</strong></p>","null","neutral_feedback","1","test","5","","","","","","","",""
"","","","","","","","","","","","html-button-response","215","2.0.0","597535","5aee513f3606ab0001b92b29","2","14","4607","","","","","","","","","<img src= ""rock_img/I_Peridotite_14.jpg"" style=""width:8cm; height:5.3cm;""><p>What type of rock is this?</p>","6","class_response","1","test","6","Peridotite","Peridotite","14","true","7","7","",""
"","","","","","","","","","","","html-keyboard-response","216","2.0.0","598039","5aee513f3606ab0001b92b29","2","14","null","","","","","","","","","<p style='font-size: 30px;'><strong>Okay</strong></p>","null","neutral_feedback","1","test","6","","","","","","","",""
"","","","","","","","","","","","html-button-response","217","2.0.0","599022","5aee513f3606ab0001b92b29","2","14","980","","","","","","","","","<img src= ""rock_img/I_Obsidian_02.jpg"" style=""width:8cm; height:7.51cm;""><p>What type of rock is this?</p>","4","class_response","1","test","7","Obsidian","Obsidian","02","true","5","5","",""
"","","","","","","","","","","","html-keyboard-response","218","2.0.0","599530","5aee513f3606ab0001b92b29","2","14","null","","","","","","","","","<p style='font-size: 30px;'><strong>Okay</strong></p>","null","neutral_feedback","1","test","7","","","","","","","",""
"","","","","","","","","","","","html-button-response","219","2.0.0","606256","5aee513f3606ab0001b92b29","2","14","6725","","","","","","","","","<img src= ""rock_img/I_Pegmatite_03.jpg"" style=""width:8cm; height:5.239999999999999cm;""><p>What type of rock is this?</p>","6","class_response","1","test","8","Peridotite","Pegmatite","03","false","7","6","",""
"","","","","","","","","","","","html-keyboard-response","220","2.0.0","606762","5aee513f3606ab0001b92b29","2","14","null","","","","","","","","","<p style='font-size: 30px;'><strong>Okay</strong></p>","null","neutral_feedback","1","test","8","","","","","","","",""
"","","","","","","","","","","","html-button-response","221","2.0.0","608056","5aee513f3606ab0001b92b29","2","14","1294","","","","","","","","","<img src= ""rock_img/I_Pumice_04.jpg"" style=""width:8cm; height:6.819999999999999cm;""><p>What type of rock is this?</p>","7","class_response","1","test","9","Pumice","Pumice","04","true","8","8","",""
"","","","","","","","","","","","html-keyboard-response","222","2.0.0","608564","5aee513f3606ab0001b92b29","2","14","null","","","","","","","","","<p style='font-size: 30px;'><strong>Okay</strong></p>","null","neutral_feedback","1","test","9","","","","","","","",""
"","","","","","","","","","","","html-button-response","223","2.0.0","610508","5aee513f3606ab0001b92b29","2","14","1942","","","","","","","","","<img src= ""rock_img/I_Obsidian_10.jpg"" style=""width:8cm; height:6.260000000000001cm;""><p>What type of rock is this?</p>","4","class_response","1","test","10","Obsidian","Obsidian","10","true","5","5","",""
"","","","","","","","","","","","html-keyboard-response","224","2.0.0","611018","5aee513f3606ab0001b92b29","2","14","null","","","","","","","","","<p style='font-size: 30px;'><strong>Okay</strong></p>","null","neutral_feedback","1","test","10","","","","","","","",""
"","","","","","","","","","","","html-button-response","225","2.0.0","617866","5aee513f3606ab0001b92b29","2","14","6846","","","","","","","","","<img src= ""rock_img/I_Obsidian_07.jpg"" style=""width:8cm; height:4.76cm;""><p>What type of rock is this?</p>","2","class_response","1","test","11","Diorite","Obsidian","07","false","3","5","",""
"","","","","","","","","","","","html-keyboard-response","226","2.0.0","618377","5aee513f3606ab0001b92b29","2","14","null","","","","","","","","","<p style='font-size: 30px;'><strong>Okay</strong></p>","null","neutral_feedback","1","test","11","","","","","","","",""
"","","","","","","","","","","","html-button-response","227","2.0.0","621088","5aee513f3606ab0001b92b29","2","14","2709","","","","","","","","","<img src= ""rock_img/I_Pegmatite_09.jpg"" style=""width:8cm; height:4.03cm;""><p>What type of rock is this?</p>","6","class_response","1","test","12","Peridotite","Pegmatite","09","false","7","6","",""
"","","","","","","","","","","","html-keyboard-response","228","2.0.0","621599","5aee513f3606ab0001b92b29","2","14","null","","","","","","","","","<p style='font-size: 30px;'><strong>Okay</strong></p>","null","neutral_feedback","1","test","12","","","","","","","",""
"","","","","","","","","","","","html-button-response","229","2.0.0","624405","5aee513f3606ab0001b92b29","2","14","2805","","","","","","","","","<img src= ""rock_img/I_Gabbro_16.jpg"" style=""width:8cm; height:6.44cm;""><p>What type of rock is this?</p>","3","class_response","1","test","13","Gabbro","Gabbro","16","true","4","4","",""
"","","","","","","","","","","","html-keyboard-response","230","2.0.0","624913","5aee513f3606ab0001b92b29","2","14","null","","","","","","","","","<p style='font-size: 30px;'><strong>Okay</strong></p>","null","neutral_feedback","1","test","13","","","","","","","",""
"","","","","","","","","","","","html-button-response","231","2.0.0","626187","5aee513f3606ab0001b92b29","2","14","1273","","","","","","","","","<img src= ""rock_img/I_Pumice_09.jpg"" style=""width:8cm; height:6.44cm;""><p>What type of rock is this?</p>","7","class_response","1","test","14","Pumice","Pumice","09","true","8","8","",""
"","","","","","","","","","","","html-keyboard-response","232","2.0.0","626689","5aee513f3606ab0001b92b29","2","14","null","","","","","","","","","<p style='font-size: 30px;'><strong>Okay</strong></p>","null","neutral_feedback","1","test","14","","","","","","","",""
"","","","","","","","","","","","html-button-response","233","2.0.0","629174","5aee513f3606ab0001b92b29","2","14","2483","","","","","","","","","<img src= ""rock_img/I_Diorite_11.jpg"" style=""width:8cm; height:7.11cm;""><p>What type of rock is this?</p>","0","class_response","1","test","15","Andesite","Diorite","11","false","1","3","",""
"","","","","","","","","","","","html-keyboard-response","234","2.0.0","629683","5aee513f3606ab0001b92b29","2","14","null","","","","","","","","","<p style='font-size: 30px;'><strong>Okay</strong></p>","null","neutral_feedback","1","test","15","","","","","","","",""
"","","","","","","","","","","","html-button-response","235","2.0.0","632371","5aee513f3606ab0001b92b29","2","14","2687","","","","","","","","","<img src= ""rock_img/I_Pumice_05.jpg"" style=""width:8cm; height:7.25cm;""><p>What type of rock is this?</p>","1","class_response","1","test","16","Basalt","Pumice","05","false","2","8","",""
"","","","","","","","","","","","html-keyboard-response","236","2.0.0","632881","5aee513f3606ab0001b92b29","2","14","null","","","","","","","","","<p style='font-size: 30px;'><strong>Okay</strong></p>","null","neutral_feedback","1","test","16","","","","","","","",""
"","","","","","","","","","","","html-button-response","237","2.0.0","643946","5aee513f3606ab0001b92b29","2","14","11064","","","","","","","","","<img src= ""rock_img/I_Peridotite_05.jpg"" style=""width:8cm; height:7.1499999999999995cm;""><p>What type of rock is this?</p>","0","class_response","1","test","17","Andesite","Peridotite","05","false","1","7","",""
"","","","","","","","","","","","html-keyboard-response","238","2.0.0","644461","5aee513f3606ab0001b92b29","2","14","null","","","","","","","","","<p style='font-size: 30px;'><strong>Okay</strong></p>","null","neutral_feedback","1","test","17","","","","","","","",""
"","","","","","","","","","","","html-button-response","239","2.0.0","648992","5aee513f3606ab0001b92b29","2","14","4529","","","","","","","","","<img src= ""rock_img/I_Pegmatite_08.jpg"" style=""width:8cm; height:7.68cm;""><p>What type of rock is this?</p>","6","class_response","1","test","18","Peridotite","Pegmatite","08","false","7","6","",""
"","","","","","","","","","","","html-keyboard-response","240","2.0.0","649500","5aee513f3606ab0001b92b29","2","14","null","","","","","","","","","<p style='font-size: 30px;'><strong>Okay</strong></p>","null","neutral_feedback","1","test","18","","","","","","","",""
"","","","","","","","","","","","html-button-response","241","2.0.0","653938","5aee513f3606ab0001b92b29","2","14","4437","","","","","","","","","<img src= ""rock_img/I_Obsidian_09.jpg"" style=""width:8cm; height:5cm;""><p>What type of rock is this?</p>","4","class_response","1","test","19","Obsidian","Obsidian","09","true","5","5","",""
"","","","","","","","","","","","html-keyboard-response","242","2.0.0","654445","5aee513f3606ab0001b92b29","2","14","null","","","","","","","","","<p style='font-size: 30px;'><strong>Okay</strong></p>","null","neutral_feedback","1","test","19","","","","","","","",""
"","","","","","","","","","","","html-button-response","243","2.0.0","656777","5aee513f3606ab0001b92b29","2","14","2330","","","","","","","","","<img src= ""rock_img/I_Diorite_10.jpg"" style=""width:8cm; height:5.949999999999999cm;""><p>What type of rock is this?</p>","0","class_response","1","test","20","Andesite","Diorite","10","false","1","3","",""
"","","","","","","","","","","","html-keyboard-response","244","2.0.0","657288","5aee513f3606ab0001b92b29","2","14","null","","","","","","","","","<p style='font-size: 30px;'><strong>Okay</strong></p>","null","neutral_feedback","1","test","20","","","","","","","",""
"","","","","","","","","","","","html-button-response","245","2.0.0","661770","5aee513f3606ab0001b92b29","2","14","4479","","","","","","","","","<img src= ""rock_img/I_Gabbro_12.jpg"" style=""width:8cm; height:7.800000000000001cm;""><p>What type of rock is this?</p>","1","class_response","1","test","21","Basalt","Gabbro","12","false","2","4","",""
"","","","","","","","","","","","html-keyboard-response","246","2.0.0","662280","5aee513f3606ab0001b92b29","2","14","null","","","","","","","","","<p style='font-size: 30px;'><strong>Okay</strong></p>","null","neutral_feedback","1","test","21","","","","","","","",""
"","","","","","","","","","","","html-button-response","247","2.0.0","663827","5aee513f3606ab0001b92b29","2","14","1545","","","","","","","","","<img src= ""rock_img/I_Andesite_11.jpg"" style=""width:8cm; height:4.92cm;""><p>What type of rock is this?</p>","0","class_response","1","test","22","Andesite","Andesite","11","true","1","1","",""
"","","","","","","","","","","","html-keyboard-response","248","2.0.0","664342","5aee513f3606ab0001b92b29","2","14","null","","","","","","","","","<p style='font-size: 30px;'><strong>Okay</strong></p>","null","neutral_feedback","1","test","22","","","","","","","",""
"","","","","","","","","","","","html-button-response","249","2.0.0","665669","5aee513f3606ab0001b92b29","2","14","1325","","","","","","","","","<img src= ""rock_img/I_Diorite_06.jpg"" style=""width:8cm; height:6.03cm;""><p>What type of rock is this?</p>","2","class_response","1","test","23","Diorite","Diorite","06","true","3","3","",""
"","","","","","","","","","","","html-keyboard-response","250","2.0.0","666181","5aee513f3606ab0001b92b29","2","14","null","","","","","","","","","<p style='font-size: 30px;'><strong>Okay</strong></p>","null","neutral_feedback","1","test","23","","","","","","","",""
"","","","","","","","","","","","html-button-response","251","2.0.0","669268","5aee513f3606ab0001b92b29","2","14","3086","","","","","","","","","<img src= ""rock_img/I_Peridotite_13.jpg"" style=""width:8cm; height:7.58cm;""><p>What type of rock is this?</p>","6","class_response","1","test","24","Peridotite","Peridotite","13","true","7","7","",""
"","","","","","","","","","","","html-keyboard-response","252","2.0.0","669773","5aee513f3606ab0001b92b29","2","14","null","","","","","","","","","<p style='font-size: 30px;'><strong>Okay</strong></p>","null","neutral_feedback","1","test","24","","","","","","","",""
"","","","","","","","","","","","html-button-response","253","2.0.0","671805","5aee513f3606ab0001b92b29","2","14","2031","","","","","","","","","<img src= ""rock_img/I_Gabbro_10.jpg"" style=""width:8cm; height:5.680000000000001cm;""><p>What type of rock is this?</p>","3","class_response","1","test","25","Gabbro","Gabbro","10","true","4","4","",""
"","","","","","","","","","","","html-keyboard-response","254","2.0.0","672314","5aee513f3606ab0001b92b29","2","14","null","","","","","","","","","<p style='font-size: 30px;'><strong>Okay</strong></p>","null","neutral_feedback","1","test","25","","","","","","","",""
"","","","","","","","","","","","html-button-response","255","2.0.0","673941","5aee513f3606ab0001b92b29","2","14","1626","","","","","","","","","<img src= ""rock_img/I_Gabbro_14.jpg"" style=""width:8cm; height:8.48cm;""><p>What type of rock is this?</p>","3","class_response","1","test","26","Gabbro","Gabbro","14","true","4","4","",""
"","","","","","","","","","","","html-keyboard-response","256","2.0.0","674447","5aee513f3606ab0001b92b29","2","14","null","","","","","","","","","<p style='font-size: 30px;'><strong>Okay</strong></p>","null","neutral_feedback","1","test","26","","","","","","","",""
"","","","","","","","","","","","html-button-response","257","2.0.0","675648","5aee513f3606ab0001b92b29","2","14","1200","","","","","","","","","<img src= ""rock_img/I_Diorite_14.jpg"" style=""width:8cm; height:5.71cm;""><p>What type of rock is this?</p>","2","class_response","1","test","27","Diorite","Diorite","14","true","3","3","",""
"","","","","","","","","","","","html-keyboard-response","258","2.0.0","676166","5aee513f3606ab0001b92b29","2","14","null","","","","","","","","","<p style='font-size: 30px;'><strong>Okay</strong></p>","null","neutral_feedback","1","test","27","","","","","","","",""
"","","","","","","","","","","","html-button-response","259","2.0.0","686230","5aee513f3606ab0001b92b29","2","14","10064","","","","","","","","","<img src= ""rock_img/I_Basalt_10.jpg"" style=""width:8cm; height:5.85cm;""><p>What type of rock is this?</p>","5","class_response","1","test","28","Pegmatite","Basalt","10","false","6","2","",""
"","","","","","","","","","","","html-keyboard-response","260","2.0.0","686743","5aee513f3606ab0001b92b29","2","14","null","","","","","","","","","<p style='font-size: 30px;'><strong>Okay</strong></p>","null","neutral_feedback","1","test","28","","","","","","","",""
"","","","","","","","","","","","html-button-response","261","2.0.0","696158","5aee513f3606ab0001b92b29","2","14","9414","","","","","","","","","<img src= ""rock_img/I_Obsidian_05.jpg"" style=""width:8cm; height:6.33cm;""><p>What type of rock is this?</p>","2","class_response","1","test","29","Diorite","Obsidian","05","false","3","5","",""
"","","","","","","","","","","","html-keyboard-response","262","2.0.0","696666","5aee513f3606ab0001b92b29","2","14","null","","","","","","","","","<p style='font-size: 30px;'><strong>Okay</strong></p>","null","neutral_feedback","1","test","29","","","","","","","",""
"","","","","","","","","","","","html-button-response","263","2.0.0","698759","5aee513f3606ab0001b92b29","2","14","2091","","","","","","","","","<img src= ""rock_img/I_Peridotite_16.jpg"" style=""width:8cm; height:6.989999999999999cm;""><p>What type of rock is this?</p>","5","class_response","1","test","30","Pegmatite","Peridotite","16","false","6","7","",""
"","","","","","","","","","","","html-keyboard-response","264","2.0.0","699271","5aee513f3606ab0001b92b29","2","14","null","","","","","","","","","<p style='font-size: 30px;'><strong>Okay</strong></p>","null","neutral_feedback","1","test","30","","","","","","","",""
"","","","","","","","","","","","html-button-response","265","2.0.0","702372","5aee513f3606ab0001b92b29","2","14","3099","","","","","","","","","<img src= ""rock_img/I_Gabbro_08.jpg"" style=""width:8cm; height:5.15cm;""><p>What type of rock is this?</p>","1","class_response","1","test","31","Basalt","Gabbro","08","false","2","4","",""
"","","","","","","","","","","","html-keyboard-response","266","2.0.0","702883","5aee513f3606ab0001b92b29","2","14","null","","","","","","","","","<p style='font-size: 30px;'><strong>Okay</strong></p>","null","neutral_feedback","1","test","31","","","","","","","",""
"","","","","","","","","","","","html-button-response","267","2.0.0","705371","5aee513f3606ab0001b92b29","2","14","2487","","","","","","","","","<img src= ""rock_img/I_Basalt_16.jpg"" style=""width:8cm; height:7.659999999999999cm;""><p>What type of rock is this?</p>","3","class_response","1","test","32","Gabbro","Basalt","16","false","4","2","",""
"","","","","","","","","","","","html-keyboard-response","268","2.0.0","705876","5aee513f3606ab0001b92b29","2","14","null","","","","","","","","","<p style='font-size: 30px;'><strong>Okay</strong></p>","null","neutral_feedback","1","test","32","","","","","","","",""
"","","","","","","","","","","","html-button-response","269","2.0.0","710246","5aee513f3606ab0001b92b29","2","14","4369","","","","","","","","","<img src= ""rock_img/I_Andesite_05.jpg"" style=""width:8cm; height:4.12cm;""><p>What type of rock is this?</p>","0","class_response","1","test","33","Andesite","Andesite","05","true","1","1","",""
"","","","","","","","","","","","html-keyboard-response","270","2.0.0","710750","5aee513f3606ab0001b92b29","2","14","null","","","","","","","","","<p style='font-size: 30px;'><strong>Okay</strong></p>","null","neutral_feedback","1","test","33","","","","","","","",""
"","","","","","","","","","","","html-button-response","271","2.0.0","713817","5aee513f3606ab0001b92b29","2","14","3066","","","","","","","","","<img src= ""rock_img/I_Pumice_16.jpg"" style=""width:8cm; height:6.79cm;""><p>What type of rock is this?</p>","1","class_response","1","test","34","Basalt","Pumice","16","false","2","8","",""
"","","","","","","","","","","","html-keyboard-response","272","2.0.0","714331","5aee513f3606ab0001b92b29","2","14","null","","","","","","","","","<p style='font-size: 30px;'><strong>Okay</strong></p>","null","neutral_feedback","1","test","34","","","","","","","",""
"","","","","","","","","","","","html-button-response","273","2.0.0","718182","5aee513f3606ab0001b92b29","2","14","3849","","","","","","","","","<img src= ""rock_img/I_Gabbro_05.jpg"" style=""width:8cm; height:6cm;""><p>What type of rock is this?</p>","6","class_response","1","test","35","Peridotite","Gabbro","05","false","7","4","",""
"","","","","","","","","","","","html-keyboard-response","274","2.0.0","718691","5aee513f3606ab0001b92b29","2","14","null","","","","","","","","","<p style='font-size: 30px;'><strong>Okay</strong></p>","null","neutral_feedback","1","test","35","","","","","","","",""
"","","","","","","","","","","","html-button-response","275","2.0.0","720960","5aee513f3606ab0001b92b29","2","14","2268","","","","","","","","","<img src= ""rock_img/I_Basalt_08.jpg"" style=""width:8cm; height:10.44cm;""><p>What type of rock is this?</p>","4","class_response","1","test","36","Obsidian","Basalt","08","false","5","2","",""
"","","","","","","","","","","","html-keyboard-response","276","2.0.0","721471","5aee513f3606ab0001b92b29","2","14","null","","","","","","","","","<p style='font-size: 30px;'><strong>Okay</strong></p>","null","neutral_feedback","1","test","36","","","","","","","",""
"","","","","","","","","","","","html-button-response","277","2.0.0","722942","5aee513f3606ab0001b92b29","2","14","1470","","","","","","","","","<img src= ""rock_img/I_Andesite_02.jpg"" style=""width:8cm; height:8.5cm;""><p>What type of rock is this?</p>","2","class_response","1","test","37","Diorite","Andesite","02","false","3","1","",""
"","","","","","","","","","","","html-keyboard-response","278","2.0.0","723448","5aee513f3606ab0001b92b29","2","14","null","","","","","","","","","<p style='font-size: 30px;'><strong>Okay</strong></p>","null","neutral_feedback","1","test","37","","","","","","","",""
"","","","","","","","","","","","html-button-response","279","2.0.0","724607","5aee513f3606ab0001b92b29","2","14","1158","","","","","","","","","<img src= ""rock_img/I_Diorite_12.jpg"" style=""width:8cm; height:4.88cm;""><p>What type of rock is this?</p>","2","class_response","1","test","38","Diorite","Diorite","12","true","3","3","",""
"","","","","","","","","","","","html-keyboard-response","280","2.0.0","725108","5aee513f3606ab0001b92b29","2","14","null","","","","","","","","","<p style='font-size: 30px;'><strong>Okay</strong></p>","null","neutral_feedback","1","test","38","","","","","","","",""
"","","","","","","","","","","","html-button-response","281","2.0.0","726448","5aee513f3606ab0001b92b29","2","14","1339","","","","","","","","","<img src= ""rock_img/I_Pumice_06.jpg"" style=""width:8cm; height:6.9399999999999995cm;""><p>What type of rock is this?</p>","7","class_response","1","test","39","Pumice","Pumice","06","true","8","8","",""
"","","","","","","","","","","","html-keyboard-response","282","2.0.0","726955","5aee513f3606ab0001b92b29","2","14","null","","","","","","","","","<p style='font-size: 30px;'><strong>Okay</strong></p>","null","neutral_feedback","1","test","39","","","","","","","",""
"","","","","","","","","","","","html-button-response","283","2.0.0","730776","5aee513f3606ab0001b92b29","2","14","3820","","","","","","","","","<img src= ""rock_img/I_Basalt_02.jpg"" style=""width:8cm; height:6.45cm;""><p>What type of rock is this?</p>","1","class_response","1","test","40","Basalt","Basalt","02","true","2","2","",""
"","","","","","","","","","","","html-keyboard-response","284","2.0.0","731282","5aee513f3606ab0001b92b29","2","14","null","","","","","","","","","<p style='font-size: 30px;'><strong>Okay</strong></p>","null","neutral_feedback","1","test","40","","","","","","","",""
"","","","","","","","","","","","html-button-response","285","2.0.0","735909","5aee513f3606ab0001b92b29","2","14","4627","","","","","","","","","<img src= ""rock_img/I_Pegmatite_13.jpg"" style=""width:8cm; height:4.95cm;""><p>What type of rock is this?</p>","2","class_response","1","test","41","Diorite","Pegmatite","13","false","3","6","",""
"","","","","","","","","","","","html-keyboard-response","286","2.0.0","736416","5aee513f3606ab0001b92b29","2","14","null","","","","","","","","","<p style='font-size: 30px;'><strong>Okay</strong></p>","null","neutral_feedback","1","test","41","","","","","","","",""
"","","","","","","","","","","","html-button-response","287","2.0.0","739290","5aee513f3606ab0001b92b29","2","14","2872","","","","","","","","","<img src= ""rock_img/I_Pumice_15.jpg"" style=""width:8cm; height:7.86cm;""><p>What type of rock is this?</p>","1","class_response","1","test","42","Basalt","Pumice","15","false","2","8","",""
"","","","","","","","","","","","html-keyboard-response","288","2.0.0","739799","5aee513f3606ab0001b92b29","2","14","null","","","","","","","","","<p style='font-size: 30px;'><strong>Okay</strong></p>","null","neutral_feedback","1","test","42","","","","","","","",""
"","","","","","","","","","","","html-button-response","289","2.0.0","748259","5aee513f3606ab0001b92b29","2","14","8459","","","","","","","","","<img src= ""rock_img/I_Basalt_09.jpg"" style=""width:8cm; height:6.2cm;""><p>What type of rock is this?</p>","1","class_response","1","test","43","Basalt","Basalt","09","true","2","2","",""
"","","","","","","","","","","","html-keyboard-response","290","2.0.0","748774","5aee513f3606ab0001b92b29","2","14","null","","","","","","","","","<p style='font-size: 30px;'><strong>Okay</strong></p>","null","neutral_feedback","1","test","43","","","","","","","",""
"","","","","","","","","","","","html-button-response","291","2.0.0","753305","5aee513f3606ab0001b92b29","2","14","4529","","","","","","","","","<img src= ""rock_img/I_Peridotite_10.jpg"" style=""width:8cm; height:5.390000000000001cm;""><p>What type of rock is this?</p>","1","class_response","1","test","44","Basalt","Peridotite","10","false","2","7","",""
"","","","","","","","","","","","html-keyboard-response","292","2.0.0","753812","5aee513f3606ab0001b92b29","2","14","null","","","","","","","","","<p style='font-size: 30px;'><strong>Okay</strong></p>","null","neutral_feedback","1","test","44","","","","","","","",""
"","","","","","","","","","","","html-button-response","293","2.0.0","755020","5aee513f3606ab0001b92b29","2","14","1207","","","","","","","","","<img src= ""rock_img/I_Diorite_16.jpg"" style=""width:8cm; height:6.74cm;""><p>What type of rock is this?</p>","2","class_response","1","test","45","Diorite","Diorite","16","true","3","3","",""
"","","","","","","","","","","","html-keyboard-response","294","2.0.0","755521","5aee513f3606ab0001b92b29","2","14","null","","","","","","","","","<p style='font-size: 30px;'><strong>Okay</strong></p>","null","neutral_feedback","1","test","45","","","","","","","",""
"","","","","","","","","","","","html-button-response","295","2.0.0","759180","5aee513f3606ab0001b92b29","2","14","3657","","","","","","","","","<img src= ""rock_img/I_Andesite_14.jpg"" style=""width:8cm; height:5.449999999999999cm;""><p>What type of rock is this?</p>","3","class_response","1","test","46","Gabbro","Andesite","14","false","4","1","",""
"","","","","","","","","","","","html-keyboard-response","296","2.0.0","759688","5aee513f3606ab0001b92b29","2","14","null","","","","","","","","","<p style='font-size: 30px;'><strong>Okay</strong></p>","null","neutral_feedback","1","test","46","","","","","","","",""
"","","","","","","","","","","","html-button-response","297","2.0.0","761979","5aee513f3606ab0001b92b29","2","14","2290","","","","","","","","","<img src= ""rock_img/I_Basalt_06.jpg"" style=""width:8cm; height:7.06cm;""><p>What type of rock is this?</p>","6","class_response","1","test","47","Peridotite","Basalt","06","false","7","2","",""
"","","","","","","","","","","","html-keyboard-response","298","2.0.0","762491","5aee513f3606ab0001b92b29","2","14","null","","","","","","","","","<p style='font-size: 30px;'><strong>Okay</strong></p>","null","neutral_feedback","1","test","47","","","","","","","",""
"","","","","","","","","","","","html-button-response","299","2.0.0","764039","5aee513f3606ab0001b92b29","2","14","1546","","","","","","","","","<img src= ""rock_img/I_Pegmatite_05.jpg"" style=""width:8cm; height:7.300000000000001cm;""><p>What type of rock is this?</p>","2","class_response","1","test","48","Diorite","Pegmatite","05","false","3","6","",""
"","","","","","","","","","","","html-keyboard-response","300","2.0.0","764546","5aee513f3606ab0001b92b29","2","14","null","","","","","","","","","<p style='font-size: 30px;'><strong>Okay</strong></p>","null","neutral_feedback","1","test","48","","","","","","","",""
"","","","","","","","","","","","html-button-response","301","2.0.0","789555","5aee513f3606ab0001b92b29","2","14","","","","","","","","","","","","cycle_feedback","","","","","","","","","","11139","13865"
"","","","","","","","","","","","html-button-response","303","2.0.0","792720","5aee513f3606ab0001b92b29","2","14","3163","","","","","","","","","","0","start_train","","","","","","","","","","",""
"","","","","","","","","","","","html-button-response","304","2.0.0","796040","5aee513f3606ab0001b92b29","2","14","3318","","","","","","","","","<img src= ""rock_img/I_Obsidian_06.jpg"" style=""width:8cm; height:6.8cm;""><p>What type of rock is this?</p>","4","class_response","2","train","1","Obsidian","Obsidian","06","true","5","5","",""
