"width","height","webaudio","browser","browser_version","mobile","os","fullscreen","vsync_rate","webcam","microphone","trial_type","trial_index","plugin_version","time_elapsed","subjID","condition","stimID","rt","url","success","value","timeout","failed_images","failed_audio","failed_video","view_history","stimulus","response","trialType","cycle","phase","trial","resp","cat","token","corr","resp_num","cat_num","time_fb1","time_fb2"
"1358","1329","true","edge-chromium","130.0.0","false","Windows 10","true","60.51","true","true","browser-check","0","2.0.0","1011","66e8648522905b612ef32882","1","52","","","","","","","","","","","","","","","","","","","","","","",""
"","","","","","","","","","","","external-html","1","2.0.0","34961","66e8648522905b612ef32882","1","52","33890","consent_form.html","","","","","","","","","","","","","","","","","","","","",""
"","","","","","","","","","","","fullscreen","2","2.0.0","43545","66e8648522905b612ef32882","1","52","7581","","true","","","","","","","","","","","","","","","","","","","",""
"","","","","","","","","","","","call-function","3","2.0.0","43546","66e8648522905b612ef32882","1","52","","","","{}","","","","","","","","","","","","","","","","","","",""
"","","","","","","","","","","","preload","4","2.0.0","45552","66e8648522905b612ef32882","1","52","","","true","","false","[]","[]","[]","","","","","","","","","","","","","","",""
"","","","","","","","","","","","instructions","5","2.0.0","95617","66e8648522905b612ef32882","1","52","50063","","","","","","","","[{""page_index"":0,""viewing_time"":12023},{""page_index"":1,""viewing_time"":19904},{""page_index"":2,""viewing_time"":18136}]","","","","","","","","","","","","","",""
"","","","","","","","","","","","html-button-response","6","2.0.0","98562","66e8648522905b612ef32882","1","52","2943","","","","","","","","","","0","start_test","","","","","","","","","","",""
"","","","","","","","","","","","html-button-response","7","2.0.0","108730","66e8648522905b612ef32882","1","52","10165","","","","","","","","","<img src= ""rock_img/I_Obsidian_02.jpg"" style=""width:8cm; height:7.51cm;""><p>What type of rock is this?</p>","4","class_response","0","test","1","Obsidian","Obsidian","02","true","5","5","",""
"","","","","","","","","","","","html-keyboard-response","8","2.0.0","109233","66e8648522905b612ef32882","1","52","null","","","","","","","","","<p style='font-size: 30px;'><strong>Okay</strong></p>","null","neutral_feedback","0","test","1","","","","","","","",""
"","","","","","","","","","","","html-button-response","9","2.0.0","129818","66e8648522905b612ef32882","1","52","20583","","","","","","","","","<img src= ""rock_img/I_Obsidian_08.jpg"" style=""width:8cm; height:7.39cm;""><p>What type of rock is this?</p>","4","class_response","0","test","2","Obsidian","Obsidian","08","true","5","5","",""
"","","","","","","","","","","","html-keyboard-response","10","2.0.0","130320","66e8648522905b612ef32882","1","52","null","","","","","","","","","<p style='font-size: 30px;'><strong>Okay</strong></p>","null","neutral_feedback","0","test","2","","","","","","","",""
"","","","","","","","","","","","html-button-response","11","2.0.0","145706","66e8648522905b612ef32882","1","52","15384","","","","","","","","","<img src= ""rock_img/I_Obsidian_14.jpg"" style=""width:8cm; height:7.64cm;""><p>What type of rock is this?</p>","1","class_response","0","test","3","Basalt","Obsidian","14","false","2","5","",""
"","","","","","","","","","","","html-keyboard-response","12","2.0.0","146208","66e8648522905b612ef32882","1","52","null","","","","","","","","","<p style='font-size: 30px;'><strong>Okay</strong></p>","null","neutral_feedback","0","test","3","","","","","","","",""
"","","","","","","","","","","","html-button-response","13","2.0.0","153114","66e8648522905b612ef32882","1","52","6905","","","","","","","","","<img src= ""rock_img/I_Pumice_14.jpg"" style=""width:8cm; height:6.39cm;""><p>What type of rock is this?</p>","7","class_response","0","test","4","Pumice","Pumice","14","true","8","8","",""
"","","","","","","","","","","","html-keyboard-response","14","2.0.0","153616","66e8648522905b612ef32882","1","52","null","","","","","","","","","<p style='font-size: 30px;'><strong>Okay</strong></p>","null","neutral_feedback","0","test","4","","","","","","","",""
"","","","","","","","","","","","html-button-response","15","2.0.0","161554","66e8648522905b612ef32882","1","52","7937","","","","","","","","","<img src= ""rock_img/I_Diorite_11.jpg"" style=""width:8cm; height:7.11cm;""><p>What type of rock is this?</p>","1","class_response","0","test","5","Basalt","Diorite","11","false","2","3","",""
"","","","","","","","","","","","html-keyboard-response","16","2.0.0","162056","66e8648522905b612ef32882","1","52","null","","","","","","","","","<p style='font-size: 30px;'><strong>Okay</strong></p>","null","neutral_feedback","0","test","5","","","","","","","",""
"","","","","","","","","","","","html-button-response","17","2.0.0","166201","66e8648522905b612ef32882","1","52","4144","","","","","","","","","<img src= ""rock_img/I_Diorite_08.jpg"" style=""width:8cm; height:6.37cm;""><p>What type of rock is this?</p>","1","class_response","0","test","6","Basalt","Diorite","08","false","2","3","",""
"","","","","","","","","","","","html-keyboard-response","18","2.0.0","166703","66e8648522905b612ef32882","1","52","null","","","","","","","","","<p style='font-size: 30px;'><strong>Okay</strong></p>","null","neutral_feedback","0","test","6","","","","","","","",""
"","","","","","","","","","","","html-button-response","19","2.0.0","170210","66e8648522905b612ef32882","1","52","3505","","","","","","","","","<img src= ""rock_img/I_Pumice_05.jpg"" style=""width:8cm; height:7.25cm;""><p>What type of rock is this?</p>","2","class_response","0","test","7","Diorite","Pumice","05","false","3","8","",""
"","","","","","","","","","","","html-keyboard-response","20","2.0.0","170710","66e8648522905b612ef32882","1","52","null","","","","","","","","","<p style='font-size: 30px;'><strong>Okay</strong></p>","null","neutral_feedback","0","test","7","","","","","","","",""
"","","","","","","","","","","","html-button-response","21","2.0.0","173097","66e8648522905b612ef32882","1","52","2386","","","","","","","","","<img src= ""rock_img/I_Diorite_07.jpg"" style=""width:8cm; height:5.239999999999999cm;""><p>What type of rock is this?</p>","1","class_response","0","test","8","Basalt","Diorite","07","false","2","3","",""
"","","","","","","","","","","","html-keyboard-response","22","2.0.0","173607","66e8648522905b612ef32882","1","52","null","","","","","","","","","<p style='font-size: 30px;'><strong>Okay</strong></p>","null","neutral_feedback","0","test","8","","","","","","","",""
"","","","","","","","","","","","html-button-response","23","2.0.0","176754","66e8648522905b612ef32882","1","52","3146","","","","","","","","","<img src= ""rock_img/I_Peridotite_07.jpg"" style=""width:8cm; height:4.83cm;""><p>What type of rock is this?</p>","7","class_response","0","test","9","Pumice","Peridotite","07","false","8","7","",""
"","","","","","","","","","","","html-keyboard-response","24","2.0.0","177256","66e8648522905b612ef32882","1","52","null","","","","","","","","","<p style='font-size: 30px;'><strong>Okay</strong></p>","null","neutral_feedback","0","test","9","","","","","","","",""
"","","","","","","","","","","","html-button-response","25","2.0.0","184922","66e8648522905b612ef32882","1","52","7664","","","","","","","","","<img src= ""rock_img/I_Pegmatite_06.jpg"" style=""width:8cm; height:5.17cm;""><p>What type of rock is this?</p>","5","class_response","0","test","10","Pegmatite","Pegmatite","06","true","6","6","",""
"","","","","","","","","","","","html-keyboard-response","26","2.0.0","185424","66e8648522905b612ef32882","1","52","null","","","","","","","","","<p style='font-size: 30px;'><strong>Okay</strong></p>","null","neutral_feedback","0","test","10","","","","","","","",""
"","","","","","","","","","","","html-button-response","27","2.0.0","190250","66e8648522905b612ef32882","1","52","4825","","","","","","","","","<img src= ""rock_img/I_Diorite_13.jpg"" style=""width:8cm; height:6.29cm;""><p>What type of rock is this?</p>","1","class_response","0","test","11","Basalt","Diorite","13","false","2","3","",""
"","","","","","","","","","","","html-keyboard-response","28","2.0.0","190761","66e8648522905b612ef32882","1","52","null","","","","","","","","","<p style='font-size: 30px;'><strong>Okay</strong></p>","null","neutral_feedback","0","test","11","","","","","","","",""
"","","","","","","","","","","","html-button-response","29","2.0.0","198082","66e8648522905b612ef32882","1","52","7319","","","","","","","","","<img src= ""rock_img/I_Pumice_02.jpg"" style=""width:8cm; height:7.3999999999999995cm;""><p>What type of rock is this?</p>","7","class_response","0","test","12","Pumice","Pumice","02","true","8","8","",""
"","","","","","","","","","","","html-keyboard-response","30","2.0.0","198583","66e8648522905b612ef32882","1","52","null","","","","","","","","","<p style='font-size: 30px;'><strong>Okay</strong></p>","null","neutral_feedback","0","test","12","","","","","","","",""
"","","","","","","","","","","","html-button-response","31","2.0.0","201954","66e8648522905b612ef32882","1","52","3369","","","","","","","","","<img src= ""rock_img/I_Peridotite_15.jpg"" style=""width:8cm; height:6cm;""><p>What type of rock is this?</p>","2","class_response","0","test","13","Diorite","Peridotite","15","false","3","7","",""
"","","","","","","","","","","","html-keyboard-response","32","2.0.0","202454","66e8648522905b612ef32882","1","52","null","","","","","","","","","<p style='font-size: 30px;'><strong>Okay</strong></p>","null","neutral_feedback","0","test","13","","","","","","","",""
"","","","","","","","","","","","html-button-response","33","2.0.0","205433","66e8648522905b612ef32882","1","52","2978","","","","","","","","","<img src= ""rock_img/I_Pumice_03.jpg"" style=""width:8cm; height:6.64cm;""><p>What type of rock is this?</p>","3","class_response","0","test","14","Gabbro","Pumice","03","false","4","8","",""
"","","","","","","","","","","","html-keyboard-response","34","2.0.0","205935","66e8648522905b612ef32882","1","52","null","","","","","","","","","<p style='font-size: 30px;'><strong>Okay</strong></p>","null","neutral_feedback","0","test","14","","","","","","","",""
"","","","","","","","","","","","html-button-response","35","2.0.0","208170","66e8648522905b612ef32882","1","52","2233","","","","","","","","","<img src= ""rock_img/I_Pegmatite_08.jpg"" style=""width:8cm; height:7.68cm;""><p>What type of rock is this?</p>","0","class_response","0","test","15","Andesite","Pegmatite","08","false","1","6","",""
"","","","","","","","","","","","html-keyboard-response","36","2.0.0","208672","66e8648522905b612ef32882","1","52","null","","","","","","","","","<p style='font-size: 30px;'><strong>Okay</strong></p>","null","neutral_feedback","0","test","15","","","","","","","",""
"","","","","","","","","","","","html-button-response","37","2.0.0","211906","66e8648522905b612ef32882","1","52","3233","","","","","","","","","<img src= ""rock_img/I_Pegmatite_10.jpg"" style=""width:8cm; height:4.16cm;""><p>What type of rock is this?</p>","6","class_response","0","test","16","Peridotite","Pegmatite","10","false","7","6","",""
"","","","","","","","","","","","html-keyboard-response","38","2.0.0","212408","66e8648522905b612ef32882","1","52","null","","","","","","","","","<p style='font-size: 30px;'><strong>Okay</strong></p>","null","neutral_feedback","0","test","16","","","","","","","",""
"","","","","","","","","","","","html-button-response","39","2.0.0","216394","66e8648522905b612ef32882","1","52","3984","","","","","","","","","<img src= ""rock_img/I_Gabbro_14.jpg"" style=""width:8cm; height:8.48cm;""><p>What type of rock is this?</p>","1","class_response","0","test","17","Basalt","Gabbro","14","false","2","4","",""
"","","","","","","","","","","","html-keyboard-response","40","2.0.0","216896","66e8648522905b612ef32882","1","52","null","","","","","","","","","<p style='font-size: 30px;'><strong>Okay</strong></p>","null","neutral_feedback","0","test","17","","","","","","","",""
"","","","","","","","","","","","html-button-response","41","2.0.0","220425","66e8648522905b612ef32882","1","52","3528","","","","","","","","","<img src= ""rock_img/I_Andesite_11.jpg"" style=""width:8cm; height:4.92cm;""><p>What type of rock is this?</p>","2","class_response","0","test","18","Diorite","Andesite","11","false","3","1","",""
"","","","","","","","","","","","html-keyboard-response","42","2.0.0","220927","66e8648522905b612ef32882","1","52","null","","","","","","","","","<p style='font-size: 30px;'><strong>Okay</strong></p>","null","neutral_feedback","0","test","18","","","","","","","",""
"","","","","","","","","","","","html-button-response","43","2.0.0","223377","66e8648522905b612ef32882","1","52","2449","","","","","","","","","<img src= ""rock_img/I_Gabbro_10.jpg"" style=""width:8cm; height:5.680000000000001cm;""><p>What type of rock is this?</p>","0","class_response","0","test","19","Andesite","Gabbro","10","false","1","4","",""
"","","","","","","","","","","","html-keyboard-response","44","2.0.0","223881","66e8648522905b612ef32882","1","52","null","","","","","","","","","<p style='font-size: 30px;'><strong>Okay</strong></p>","null","neutral_feedback","0","test","19","","","","","","","",""
"","","","","","","","","","","","html-button-response","45","2.0.0","226802","66e8648522905b612ef32882","1","52","2920","","","","","","","","","<img src= ""rock_img/I_Peridotite_02.jpg"" style=""width:8cm; height:5.859999999999999cm;""><p>What type of rock is this?</p>","3","class_response","0","test","20","Gabbro","Peridotite","02","false","4","7","",""
"","","","","","","","","","","","html-keyboard-response","46","2.0.0","227305","66e8648522905b612ef32882","1","52","null","","","","","","","","","<p style='font-size: 30px;'><strong>Okay</strong></p>","null","neutral_feedback","0","test","20","","","","","","","",""
"","","","","","","","","","","","html-button-response","47","2.0.0","231210","66e8648522905b612ef32882","1","52","3904","","","","","","","","","<img src= ""rock_img/I_Pegmatite_16.jpg"" style=""width:8cm; height:5.8cm;""><p>What type of rock is this?</p>","5","class_response","0","test","21","Pegmatite","Pegmatite","16","true","6","6","",""
"","","","","","","","","","","","html-keyboard-response","48","2.0.0","231712","66e8648522905b612ef32882","1","52","null","","","","","","","","","<p style='font-size: 30px;'><strong>Okay</strong></p>","null","neutral_feedback","0","test","21","","","","","","","",""
"","","","","","","","","","","","html-button-response","49","2.0.0","233826","66e8648522905b612ef32882","1","52","2113","","","","","","","","","<img src= ""rock_img/I_Basalt_12.jpg"" style=""width:8cm; height:6.010000000000001cm;""><p>What type of rock is this?</p>","2","class_response","0","test","22","Diorite","Basalt","12","false","3","2","",""
"","","","","","","","","","","","html-keyboard-response","50","2.0.0","234328","66e8648522905b612ef32882","1","52","null","","","","","","","","","<p style='font-size: 30px;'><strong>Okay</strong></p>","null","neutral_feedback","0","test","22","","","","","","","",""
"","","","","","","","","","","","html-button-response","51","2.0.0","239746","66e8648522905b612ef32882","1","52","5417","","","","","","","","","<img src= ""rock_img/I_Andesite_02.jpg"" style=""width:8cm; height:8.5cm;""><p>What type of rock is this?</p>","0","class_response","0","test","23","Andesite","Andesite","02","true","1","1","",""
"","","","","","","","","","","","html-keyboard-response","52","2.0.0","240247","66e8648522905b612ef32882","1","52","null","","","","","","","","","<p style='font-size: 30px;'><strong>Okay</strong></p>","null","neutral_feedback","0","test","23","","","","","","","",""
"","","","","","","","","","","","html-button-response","53","2.0.0","242394","66e8648522905b612ef32882","1","52","2146","","","","","","","","","<img src= ""rock_img/I_Basalt_16.jpg"" style=""width:8cm; height:7.659999999999999cm;""><p>What type of rock is this?</p>","3","class_response","0","test","24","Gabbro","Basalt","16","false","4","2","",""
"","","","","","","","","","","","html-keyboard-response","54","2.0.0","242896","66e8648522905b612ef32882","1","52","null","","","","","","","","","<p style='font-size: 30px;'><strong>Okay</strong></p>","null","neutral_feedback","0","test","24","","","","","","","",""
"","","","","","","","","","","","html-button-response","55","2.0.0","246978","66e8648522905b612ef32882","1","52","4081","","","","","","","","","<img src= ""rock_img/I_Peridotite_08.jpg"" style=""width:8cm; height:6.7cm;""><p>What type of rock is this?</p>","7","class_response","0","test","25","Pumice","Peridotite","08","false","8","7","",""
"","","","","","","","","","","","html-keyboard-response","56","2.0.0","247485","66e8648522905b612ef32882","1","52","null","","","","","","","","","<p style='font-size: 30px;'><strong>Okay</strong></p>","null","neutral_feedback","0","test","25","","","","","","","",""
"","","","","","","","","","","","html-button-response","57","2.0.0","250522","66e8648522905b612ef32882","1","52","3035","","","","","","","","","<img src= ""rock_img/I_Pegmatite_05.jpg"" style=""width:8cm; height:7.300000000000001cm;""><p>What type of rock is this?</p>","6","class_response","0","test","26","Peridotite","Pegmatite","05","false","7","6","",""
"","","","","","","","","","","","html-keyboard-response","58","2.0.0","251024","66e8648522905b612ef32882","1","52","null","","","","","","","","","<p style='font-size: 30px;'><strong>Okay</strong></p>","null","neutral_feedback","0","test","26","","","","","","","",""
"","","","","","","","","","","","html-button-response","59","2.0.0","253290","66e8648522905b612ef32882","1","52","2265","","","","","","","","","<img src= ""rock_img/I_Basalt_11.jpg"" style=""width:8cm; height:5.359999999999999cm;""><p>What type of rock is this?</p>","1","class_response","0","test","27","Basalt","Basalt","11","true","2","2","",""
"","","","","","","","","","","","html-keyboard-response","60","2.0.0","253792","66e8648522905b612ef32882","1","52","null","","","","","","","","","<p style='font-size: 30px;'><strong>Okay</strong></p>","null","neutral_feedback","0","test","27","","","","","","","",""
"","","","","","","","","","","","html-button-response","61","2.0.0","255970","66e8648522905b612ef32882","1","52","2176","","","","","","","","","<img src= ""rock_img/I_Andesite_10.jpg"" style=""width:8cm; height:4.16cm;""><p>What type of rock is this?</p>","1","class_response","0","test","28","Basalt","Andesite","10","false","2","1","",""
"","","","","","","","","","","","html-keyboard-response","62","2.0.0","256472","66e8648522905b612ef32882","1","52","null","","","","","","","","","<p style='font-size: 30px;'><strong>Okay</strong></p>","null","neutral_feedback","0","test","28","","","","","","","",""
"","","","","","","","","","","","html-button-response","63","2.0.0","258410","66e8648522905b612ef32882","1","52","1936","","","","","","","","","<img src= ""rock_img/I_Gabbro_16.jpg"" style=""width:8cm; height:6.44cm;""><p>What type of rock is this?</p>","2","class_response","0","test","29","Diorite","Gabbro","16","false","3","4","",""
"","","","","","","","","","","","html-keyboard-response","64","2.0.0","258911","66e8648522905b612ef32882","1","52","null","","","","","","","","","<p style='font-size: 30px;'><strong>Okay</strong></p>","null","neutral_feedback","0","test","29","","","","","","","",""
"","","","","","","","","","","","html-button-response","65","2.0.0","264194","66e8648522905b612ef32882","1","52","5281","","","","","","","","","<img src= ""rock_img/I_Gabbro_03.jpg"" style=""width:8cm; height:8.52cm;""><p>What type of rock is this?</p>","2","class_response","0","test","30","Diorite","Gabbro","03","false","3","4","",""
"","","","","","","","","","","","html-keyboard-response","66","2.0.0","264695","66e8648522905b612ef32882","1","52","null","","","","","","","","","<p style='font-size: 30px;'><strong>Okay</strong></p>","null","neutral_feedback","0","test","30","","","","","","","",""
"","","","","","","","","","","","html-button-response","67","2.0.0","266090","66e8648522905b612ef32882","1","52","1394","","","","","","","","","<img src= ""rock_img/I_Peridotite_05.jpg"" style=""width:8cm; height:7.1499999999999995cm;""><p>What type of rock is this?</p>","6","class_response","0","test","31","Peridotite","Peridotite","05","true","7","7","",""
"","","","","","","","","","","","html-keyboard-response","68","2.0.0","266591","66e8648522905b612ef32882","1","52","null","","","","","","","","","<p style='font-size: 30px;'><strong>Okay</strong></p>","null","neutral_feedback","0","test","31","","","","","","","",""
"","","","","","","","","","","","html-button-response","69","2.0.0","269738","66e8648522905b612ef32882","1","52","3146","","","","","","","","","<img src= ""rock_img/I_Gabbro_08.jpg"" style=""width:8cm; height:5.15cm;""><p>What type of rock is this?</p>","3","class_response","0","test","32","Gabbro","Gabbro","08","true","4","4","",""
"","","","","","","","","","","","html-keyboard-response","70","2.0.0","270247","66e8648522905b612ef32882","1","52","null","","","","","","","","","<p style='font-size: 30px;'><strong>Okay</strong></p>","null","neutral_feedback","0","test","32","","","","","","","",""
"","","","","","","","","","","","html-button-response","71","2.0.0","271306","66e8648522905b612ef32882","1","52","1057","","","","","","","","","<img src= ""rock_img/I_Peridotite_14.jpg"" style=""width:8cm; height:5.3cm;""><p>What type of rock is this?</p>","3","class_response","0","test","33","Gabbro","Peridotite","14","false","4","7","",""
"","","","","","","","","","","","html-keyboard-response","72","2.0.0","271807","66e8648522905b612ef32882","1","52","null","","","","","","","","","<p style='font-size: 30px;'><strong>Okay</strong></p>","null","neutral_feedback","0","test","33","","","","","","","",""
"","","","","","","","","","","","html-button-response","73","2.0.0","274538","66e8648522905b612ef32882","1","52","2729","","","","","","","","","<img src= ""rock_img/I_Obsidian_04.jpg"" style=""width:8cm; height:6.930000000000001cm;""><p>What type of rock is this?</p>","4","class_response","0","test","34","Obsidian","Obsidian","04","true","5","5","",""
"","","","","","","","","","","","html-keyboard-response","74","2.0.0","275038","66e8648522905b612ef32882","1","52","null","","","","","","","","","<p style='font-size: 30px;'><strong>Okay</strong></p>","null","neutral_feedback","0","test","34","","","","","","","",""
"","","","","","","","","","","","html-button-response","75","2.0.0","279450","66e8648522905b612ef32882","1","52","4410","","","","","","","","","<img src= ""rock_img/I_Pumice_10.jpg"" style=""width:8cm; height:7.609999999999999cm;""><p>What type of rock is this?</p>","7","class_response","0","test","35","Pumice","Pumice","10","true","8","8","",""
"","","","","","","","","","","","html-keyboard-response","76","2.0.0","279952","66e8648522905b612ef32882","1","52","null","","","","","","","","","<p style='font-size: 30px;'><strong>Okay</strong></p>","null","neutral_feedback","0","test","35","","","","","","","",""
"","","","","","","","","","","","html-button-response","77","2.0.0","282594","66e8648522905b612ef32882","1","52","2640","","","","","","","","","<img src= ""rock_img/I_Obsidian_10.jpg"" style=""width:8cm; height:6.260000000000001cm;""><p>What type of rock is this?</p>","4","class_response","0","test","36","Obsidian","Obsidian","10","true","5","5","",""
"","","","","","","","","","","","html-keyboard-response","78","2.0.0","283096","66e8648522905b612ef32882","1","52","null","","","","","","","","","<p style='font-size: 30px;'><strong>Okay</strong></p>","null","neutral_feedback","0","test","36","","","","","","","",""
"","","","","","","","","","","","html-button-response","79","2.0.0","288770","66e8648522905b612ef32882","1","52","5673","","","","","","","","","<img src= ""rock_img/I_Pumice_08.jpg"" style=""width:8cm; height:6.67cm;""><p>What type of rock is this?</p>","7","class_response","0","test","37","Pumice","Pumice","08","true","8","8","",""
"","","","","","","","","","","","html-keyboard-response","80","2.0.0","289272","66e8648522905b612ef32882","1","52","null","","","","","","","","","<p style='font-size: 30px;'><strong>Okay</strong></p>","null","neutral_feedback","0","test","37","","","","","","","",""
"","","","","","","","","","","","html-button-response","81","2.0.0","291490","66e8648522905b612ef32882","1","52","2216","","","","","","","","","<img src= ""rock_img/I_Andesite_03.jpg"" style=""width:8cm; height:5.73cm;""><p>What type of rock is this?</p>","3","class_response","0","test","38","Gabbro","Andesite","03","false","4","1","",""
"","","","","","","","","","","","html-keyboard-response","82","2.0.0","291992","66e8648522905b612ef32882","1","52","null","","","","","","","","","<p style='font-size: 30px;'><strong>Okay</strong></p>","null","neutral_feedback","0","test","38","","","","","","","",""
"","","","","","","","","","","","html-button-response","83","2.0.0","297698","66e8648522905b612ef32882","1","52","5705","","","","","","","","","<img src= ""rock_img/I_Basalt_01.jpg"" style=""width:8cm; height:7.880000000000001cm;""><p>What type of rock is this?</p>","2","class_response","0","test","39","Diorite","Basalt","01","false","3","2","",""
"","","","","","","","","","","","html-keyboard-response","84","2.0.0","298199","66e8648522905b612ef32882","1","52","null","","","","","","","","","<p style='font-size: 30px;'><strong>Okay</strong></p>","null","neutral_feedback","0","test","39","","","","","","","",""
"","","","","","","","","","","","html-button-response","85","2.0.0","299986","66e8648522905b612ef32882","1","52","1785","","","","","","","","","<img src= ""rock_img/I_Andesite_16.jpg"" style=""width:8cm; height:6.010000000000001cm;""><p>What type of rock is this?</p>","4","class_response","0","test","40","Obsidian","Andesite","16","false","5","1","",""
"","","","","","","","","","","","html-keyboard-response","86","2.0.0","300487","66e8648522905b612ef32882","1","52","null","","","","","","","","","<p style='font-size: 30px;'><strong>Okay</strong></p>","null","neutral_feedback","0","test","40","","","","","","","",""
"","","","","","","","","","","","html-button-response","87","2.0.0","303170","66e8648522905b612ef32882","1","52","2681","","","","","","","","","<img src= ""rock_img/I_Basalt_08.jpg"" style=""width:8cm; height:10.44cm;""><p>What type of rock is this?</p>","4","class_response","0","test","41","Obsidian","Basalt","08","false","5","2","",""
"","","","","","","","","","","","html-keyboard-response","88","2.0.0","303675","66e8648522905b612ef32882","1","52","null","","","","","","","","","<p style='font-size: 30px;'><strong>Okay</strong></p>","null","neutral_feedback","0","test","41","","","","","","","",""
"","","","","","","","","","","","html-button-response","89","2.0.0","305386","66e8648522905b612ef32882","1","52","1709","","","","","","","","","<img src= ""rock_img/I_Basalt_06.jpg"" style=""width:8cm; height:7.06cm;""><p>What type of rock is this?</p>","4","class_response","0","test","42","Obsidian","Basalt","06","false","5","2","",""
"","","","","","","","","","","","html-keyboard-response","90","2.0.0","305886","66e8648522905b612ef32882","1","52","null","","","","","","","","","<p style='font-size: 30px;'><strong>Okay</strong></p>","null","neutral_feedback","0","test","42","","","","","","","",""
"","","","","","","","","","","","html-button-response","91","2.0.0","309202","66e8648522905b612ef32882","1","52","3314","","","","","","","","","<img src= ""rock_img/I_Diorite_09.jpg"" style=""width:8cm; height:5.27cm;""><p>What type of rock is this?</p>","6","class_response","0","test","43","Peridotite","Diorite","09","false","7","3","",""
"","","","","","","","","","","","html-keyboard-response","92","2.0.0","309704","66e8648522905b612ef32882","1","52","null","","","","","","","","","<p style='font-size: 30px;'><strong>Okay</strong></p>","null","neutral_feedback","0","test","43","","","","","","","",""
"","","","","","","","","","","","html-button-response","93","2.0.0","315850","66e8648522905b612ef32882","1","52","6144","","","","","","","","","<img src= ""rock_img/I_Andesite_04.jpg"" style=""width:8cm; height:5.96cm;""><p>What type of rock is this?</p>","3","class_response","0","test","44","Gabbro","Andesite","04","false","4","1","",""
"","","","","","","","","","","","html-keyboard-response","94","2.0.0","316351","66e8648522905b612ef32882","1","52","null","","","","","","","","","<p style='font-size: 30px;'><strong>Okay</strong></p>","null","neutral_feedback","0","test","44","","","","","","","",""
"","","","","","","","","","","","html-button-response","95","2.0.0","318354","66e8648522905b612ef32882","1","52","2001","","","","","","","","","<img src= ""rock_img/I_Obsidian_16.jpg"" style=""width:8cm; height:9.3cm;""><p>What type of rock is this?</p>","4","class_response","0","test","45","Obsidian","Obsidian","16","true","5","5","",""
"","","","","","","","","","","","html-keyboard-response","96","2.0.0","318856","66e8648522905b612ef32882","1","52","null","","","","","","","","","<p style='font-size: 30px;'><strong>Okay</strong></p>","null","neutral_feedback","0","test","45","","","","","","","",""
"","","","","","","","","","","","html-button-response","97","2.0.0","322178","66e8648522905b612ef32882","1","52","3321","","","","","","","","","<img src= ""rock_img/I_Pegmatite_15.jpg"" style=""width:8cm; height:6cm;""><p>What type of rock is this?</p>","5","class_response","0","test","46","Pegmatite","Pegmatite","15","true","6","6","",""
"","","","","","","","","","","","html-keyboard-response","98","2.0.0","322680","66e8648522905b612ef32882","1","52","null","","","","","","","","","<p style='font-size: 30px;'><strong>Okay</strong></p>","null","neutral_feedback","0","test","46","","","","","","","",""
"","","","","","","","","","","","html-button-response","99","2.0.0","324315","66e8648522905b612ef32882","1","52","1634","","","","","","","","","<img src= ""rock_img/I_Gabbro_05.jpg"" style=""width:8cm; height:6cm;""><p>What type of rock is this?</p>","2","class_response","0","test","47","Diorite","Gabbro","05","false","3","4","",""
"","","","","","","","","","","","html-keyboard-response","100","2.0.0","324818","66e8648522905b612ef32882","1","52","null","","","","","","","","","<p style='font-size: 30px;'><strong>Okay</strong></p>","null","neutral_feedback","0","test","47","","","","","","","",""
"","","","","","","","","","","","html-button-response","101","2.0.0","329730","66e8648522905b612ef32882","1","52","4911","","","","","","","","","<img src= ""rock_img/I_Diorite_16.jpg"" style=""width:8cm; height:6.74cm;""><p>What type of rock is this?</p>","6","class_response","0","test","48","Peridotite","Diorite","16","false","7","3","",""
"","","","","","","","","","","","html-keyboard-response","102","2.0.0","330231","66e8648522905b612ef32882","1","52","null","","","","","","","","","<p style='font-size: 30px;'><strong>Okay</strong></p>","null","neutral_feedback","0","test","48","","","","","","","",""
"","","","","","","","","","","","instructions","103","2.0.0","367121","66e8648522905b612ef32882","1","52","36875","","","","","","","","[{""page_index"":0,""viewing_time"":22955},{""page_index"":1,""viewing_time"":6384},{""page_index"":2,""viewing_time"":7535}]","","","","","","","","","","","","","",""
"","","","","","","","","","","","html-button-response","104","2.0.0","371554","66e8648522905b612ef32882","1","52","4431","","","","","","","","","","0","start_train","","","","","","","","","","",""
"","","","","","","","","","","","html-button-response","105","2.0.0","374954","66e8648522905b612ef32882","1","52","3398","","","","","","","","","<img src= ""rock_img/I_Obsidian_12.jpg"" style=""width:8cm; height:6.53cm;""><p>What type of rock is this?</p>","4","class_response","1","train","1","Obsidian","Obsidian","12","true","5","5","",""
"","","","","","","","","","","","html-button-response","106","2.0.0","380401","66e8648522905b612ef32882","1","52","5445","","","","","","","","","<img src= rock_img/I_Obsidian_12.jpg style=""width:8cm; height:6.53cm;""><p style='font-size: 30px; color: green;'><strong>Correct!</strong></p><p style='font-size: 30px;'><strong>This rock is obsidian</strong></p>","0","corr_feedback","1","train","1","","","","","","","",""
"","","","","","","","","","","","html-button-response","107","2.0.0","384498","66e8648522905b612ef32882","1","52","4096","","","","","","","","","<img src= ""rock_img/I_Diorite_14.jpg"" style=""width:8cm; height:5.71cm;""><p>What type of rock is this?</p>","5","class_response","1","train","2","Pegmatite","Diorite","14","false","6","3","",""
"","","","","","","","","","","","html-button-response","108","2.0.0","395178","66e8648522905b612ef32882","1","52","10678","","","","","","","","","<img src= rock_img/I_Diorite_14.jpg style=""width:8cm; height:5.71cm;""><p style='font-size: 30px; color: red;'><strong>Incorrect!</strong></p><p style='font-size: 30px;'><strong>This rock is diorite</strong></p>","0","corr_feedback","1","train","2","","","","","","","",""
"","","","","","","","","","","","html-button-response","109","2.0.0","399330","66e8648522905b612ef32882","1","52","4150","","","","","","","","","<img src= ""rock_img/I_Andesite_07.jpg"" style=""width:8cm; height:5.93cm;""><p>What type of rock is this?</p>","2","class_response","1","train","3","Diorite","Andesite","07","false","3","1","",""
"","","","","","","","","","","","html-button-response","110","2.0.0","402794","66e8648522905b612ef32882","1","52","3462","","","","","","","","","<img src= rock_img/I_Andesite_07.jpg style=""width:8cm; height:5.93cm;""><p style='font-size: 30px; color: red;'><strong>Incorrect!</strong></p><p style='font-size: 30px;'><strong>This rock is andesite</strong></p>","0","corr_feedback","1","train","3","","","","","","","",""
"","","","","","","","","","","","html-button-response","111","2.0.0","405794","66e8648522905b612ef32882","1","52","2999","","","","","","","","","<img src= ""rock_img/I_Obsidian_06.jpg"" style=""width:8cm; height:6.8cm;""><p>What type of rock is this?</p>","4","class_response","1","train","4","Obsidian","Obsidian","06","true","5","5","",""
"","","","","","","","","","","","html-button-response","112","2.0.0","408026","66e8648522905b612ef32882","1","52","2231","","","","","","","","","<img src= rock_img/I_Obsidian_06.jpg style=""width:8cm; height:6.8cm;""><p style='font-size: 30px; color: green;'><strong>Correct!</strong></p><p style='font-size: 30px;'><strong>This rock is obsidian</strong></p>","0","corr_feedback","1","train","4","","","","","","","",""
"","","","","","","","","","","","html-button-response","113","2.0.0","410618","66e8648522905b612ef32882","1","52","2590","","","","","","","","","<img src= ""rock_img/I_Basalt_04.jpg"" style=""width:8cm; height:7.53cm;""><p>What type of rock is this?</p>","1","class_response","1","train","5","Basalt","Basalt","04","true","2","2","",""
"","","","","","","","","","","","html-button-response","114","2.0.0","415106","66e8648522905b612ef32882","1","52","4487","","","","","","","","","<img src= rock_img/I_Basalt_04.jpg style=""width:8cm; height:7.53cm;""><p style='font-size: 30px; color: green;'><strong>Correct!</strong></p><p style='font-size: 30px;'><strong>This rock is basalt</strong></p>","0","corr_feedback","1","train","5","","","","","","","",""
"","","","","","","","","","","","html-button-response","115","2.0.0","421810","66e8648522905b612ef32882","1","52","6702","","","","","","","","","<img src= ""rock_img/I_Peridotite_16.jpg"" style=""width:8cm; height:6.989999999999999cm;""><p>What type of rock is this?</p>","0","class_response","1","train","6","Andesite","Peridotite","16","false","1","7","",""
"","","","","","","","","","","","html-button-response","116","2.0.0","425642","66e8648522905b612ef32882","1","52","3830","","","","","","","","","<img src= rock_img/I_Peridotite_16.jpg style=""width:8cm; height:6.989999999999999cm;""><p style='font-size: 30px; color: red;'><strong>Incorrect!</strong></p><p style='font-size: 30px;'><strong>This rock is peridotite</strong></p>","0","corr_feedback","1","train","6","","","","","","","",""
"","","","","","","","","","","","html-button-response","117","2.0.0","428818","66e8648522905b612ef32882","1","52","3175","","","","","","","","","<img src= ""rock_img/I_Basalt_05.jpg"" style=""width:8cm; height:8.18cm;""><p>What type of rock is this?</p>","4","class_response","1","train","7","Obsidian","Basalt","05","false","5","2","",""
"","","","","","","","","","","","html-button-response","118","2.0.0","431155","66e8648522905b612ef32882","1","52","2336","","","","","","","","","<img src= rock_img/I_Basalt_05.jpg style=""width:8cm; height:8.18cm;""><p style='font-size: 30px; color: red;'><strong>Incorrect!</strong></p><p style='font-size: 30px;'><strong>This rock is basalt</strong></p>","0","corr_feedback","1","train","7","","","","","","","",""
"","","","","","","","","","","","html-button-response","119","2.0.0","434930","66e8648522905b612ef32882","1","52","3773","","","","","","","","","<img src= ""rock_img/I_Diorite_12.jpg"" style=""width:8cm; height:4.88cm;""><p>What type of rock is this?</p>","2","class_response","1","train","8","Diorite","Diorite","12","true","3","3","",""
"","","","","","","","","","","","html-button-response","120","2.0.0","440226","66e8648522905b612ef32882","1","52","5295","","","","","","","","","<img src= rock_img/I_Diorite_12.jpg style=""width:8cm; height:4.88cm;""><p style='font-size: 30px; color: green;'><strong>Correct!</strong></p><p style='font-size: 30px;'><strong>This rock is diorite</strong></p>","0","corr_feedback","1","train","8","","","","","","","",""
"","","","","","","","","","","","html-button-response","121","2.0.0","444555","66e8648522905b612ef32882","1","52","4327","","","","","","","","","<img src= ""rock_img/I_Peridotite_06.jpg"" style=""width:8cm; height:7.53cm;""><p>What type of rock is this?</p>","5","class_response","1","train","9","Pegmatite","Peridotite","06","false","6","7","",""
"","","","","","","","","","","","html-button-response","122","2.0.0","446650","66e8648522905b612ef32882","1","52","2094","","","","","","","","","<img src= rock_img/I_Peridotite_06.jpg style=""width:8cm; height:7.53cm;""><p style='font-size: 30px; color: red;'><strong>Incorrect!</strong></p><p style='font-size: 30px;'><strong>This rock is peridotite</strong></p>","0","corr_feedback","1","train","9","","","","","","","",""
"","","","","","","","","","","","html-button-response","123","2.0.0","451401","66e8648522905b612ef32882","1","52","4749","","","","","","","","","<img src= ""rock_img/I_Pumice_13.jpg"" style=""width:8cm; height:8.200000000000001cm;""><p>What type of rock is this?</p>","3","class_response","1","train","10","Gabbro","Pumice","13","false","4","8","",""
"","","","","","","","","","","","html-button-response","124","2.0.0","454234","66e8648522905b612ef32882","1","52","2832","","","","","","","","","<img src= rock_img/I_Pumice_13.jpg style=""width:8cm; height:8.200000000000001cm;""><p style='font-size: 30px; color: red;'><strong>Incorrect!</strong></p><p style='font-size: 30px;'><strong>This rock is pumice</strong></p>","0","corr_feedback","1","train","10","","","","","","","",""
"","","","","","","","","","","","html-button-response","125","2.0.0","457586","66e8648522905b612ef32882","1","52","3349","","","","","","","","","<img src= ""rock_img/I_Pegmatite_09.jpg"" style=""width:8cm; height:4.03cm;""><p>What type of rock is this?</p>","2","class_response","1","train","11","Diorite","Pegmatite","09","false","3","6","",""
"","","","","","","","","","","","html-button-response","126","2.0.0","459146","66e8648522905b612ef32882","1","52","1559","","","","","","","","","<img src= rock_img/I_Pegmatite_09.jpg style=""width:8cm; height:4.03cm;""><p style='font-size: 30px; color: red;'><strong>Incorrect!</strong></p><p style='font-size: 30px;'><strong>This rock is pegmatite</strong></p>","0","corr_feedback","1","train","11","","","","","","","",""
"","","","","","","","","","","","html-button-response","127","2.0.0","462674","66e8648522905b612ef32882","1","52","3526","","","","","","","","","<img src= ""rock_img/I_Pumice_16.jpg"" style=""width:8cm; height:6.79cm;""><p>What type of rock is this?</p>","7","class_response","1","train","12","Pumice","Pumice","16","true","8","8","",""
"","","","","","","","","","","","html-button-response","128","2.0.0","465394","66e8648522905b612ef32882","1","52","2718","","","","","","","","","<img src= rock_img/I_Pumice_16.jpg style=""width:8cm; height:6.79cm;""><p style='font-size: 30px; color: green;'><strong>Correct!</strong></p><p style='font-size: 30px;'><strong>This rock is pumice</strong></p>","0","corr_feedback","1","train","12","","","","","","","",""
"","","","","","","","","","","","html-button-response","129","2.0.0","469170","66e8648522905b612ef32882","1","52","3775","","","","","","","","","<img src= ""rock_img/I_Diorite_10.jpg"" style=""width:8cm; height:5.949999999999999cm;""><p>What type of rock is this?</p>","0","class_response","1","train","13","Andesite","Diorite","10","false","1","3","",""
"","","","","","","","","","","","html-button-response","130","2.0.0","471306","66e8648522905b612ef32882","1","52","2134","","","","","","","","","<img src= rock_img/I_Diorite_10.jpg style=""width:8cm; height:5.949999999999999cm;""><p style='font-size: 30px; color: red;'><strong>Incorrect!</strong></p><p style='font-size: 30px;'><strong>This rock is diorite</strong></p>","0","corr_feedback","1","train","13","","","","","","","",""
"","","","","","","","","","","","html-button-response","131","2.0.0","480234","66e8648522905b612ef32882","1","52","8926","","","","","","","","","<img src= ""rock_img/I_Andesite_06.jpg"" style=""width:8cm; height:6.840000000000001cm;""><p>What type of rock is this?</p>","6","class_response","1","train","14","Peridotite","Andesite","06","false","7","1","",""
"","","","","","","","","","","","html-button-response","132","2.0.0","482146","66e8648522905b612ef32882","1","52","1910","","","","","","","","","<img src= rock_img/I_Andesite_06.jpg style=""width:8cm; height:6.840000000000001cm;""><p style='font-size: 30px; color: red;'><strong>Incorrect!</strong></p><p style='font-size: 30px;'><strong>This rock is andesite</strong></p>","0","corr_feedback","1","train","14","","","","","","","",""
"","","","","","","","","","","","html-button-response","133","2.0.0","485570","66e8648522905b612ef32882","1","52","3423","","","","","","","","","<img src= ""rock_img/I_Gabbro_12.jpg"" style=""width:8cm; height:7.800000000000001cm;""><p>What type of rock is this?</p>","1","class_response","1","train","15","Basalt","Gabbro","12","false","2","4","",""
"","","","","","","","","","","","html-button-response","134","2.0.0","487618","66e8648522905b612ef32882","1","52","2047","","","","","","","","","<img src= rock_img/I_Gabbro_12.jpg style=""width:8cm; height:7.800000000000001cm;""><p style='font-size: 30px; color: red;'><strong>Incorrect!</strong></p><p style='font-size: 30px;'><strong>This rock is gabbro</strong></p>","0","corr_feedback","1","train","15","","","","","","","",""
"","","","","","","","","","","","html-button-response","135","2.0.0","490890","66e8648522905b612ef32882","1","52","3271","","","","","","","","","<img src= ""rock_img/I_Peridotite_13.jpg"" style=""width:8cm; height:7.58cm;""><p>What type of rock is this?</p>","3","class_response","1","train","16","Gabbro","Peridotite","13","false","4","7","",""
"","","","","","","","","","","","html-button-response","136","2.0.0","492282","66e8648522905b612ef32882","1","52","1389","","","","","","","","","<img src= rock_img/I_Peridotite_13.jpg style=""width:8cm; height:7.58cm;""><p style='font-size: 30px; color: red;'><strong>Incorrect!</strong></p><p style='font-size: 30px;'><strong>This rock is peridotite</strong></p>","0","corr_feedback","1","train","16","","","","","","","",""
"","","","","","","","","","","","html-button-response","137","2.0.0","503354","66e8648522905b612ef32882","1","52","11070","","","","","","","","","<img src= ""rock_img/I_Pegmatite_12.jpg"" style=""width:8cm; height:5.7cm;""><p>What type of rock is this?</p>","2","class_response","1","train","17","Diorite","Pegmatite","12","false","3","6","",""
"","","","","","","","","","","","html-button-response","138","2.0.0","505457","66e8648522905b612ef32882","1","52","2102","","","","","","","","","<img src= rock_img/I_Pegmatite_12.jpg style=""width:8cm; height:5.7cm;""><p style='font-size: 30px; color: red;'><strong>Incorrect!</strong></p><p style='font-size: 30px;'><strong>This rock is pegmatite</strong></p>","0","corr_feedback","1","train","17","","","","","","","",""
"","","","","","","","","","","","html-button-response","139","2.0.0","508810","66e8648522905b612ef32882","1","52","3352","","","","","","","","","<img src= ""rock_img/I_Obsidian_07.jpg"" style=""width:8cm; height:4.76cm;""><p>What type of rock is this?</p>","4","class_response","1","train","18","Obsidian","Obsidian","07","true","5","5","",""
"","","","","","","","","","","","html-button-response","140","2.0.0","511697","66e8648522905b612ef32882","1","52","2886","","","","","","","","","<img src= rock_img/I_Obsidian_07.jpg style=""width:8cm; height:4.76cm;""><p style='font-size: 30px; color: green;'><strong>Correct!</strong></p><p style='font-size: 30px;'><strong>This rock is obsidian</strong></p>","0","corr_feedback","1","train","18","","","","","","","",""
"","","","","","","","","","","","html-button-response","141","2.0.0","515338","66e8648522905b612ef32882","1","52","3639","","","","","","","","","<img src= ""rock_img/I_Obsidian_05.jpg"" style=""width:8cm; height:6.33cm;""><p>What type of rock is this?</p>","4","class_response","1","train","19","Obsidian","Obsidian","05","true","5","5","",""
"","","","","","","","","","","","html-button-response","142","2.0.0","517801","66e8648522905b612ef32882","1","52","2462","","","","","","","","","<img src= rock_img/I_Obsidian_05.jpg style=""width:8cm; height:6.33cm;""><p style='font-size: 30px; color: green;'><strong>Correct!</strong></p><p style='font-size: 30px;'><strong>This rock is obsidian</strong></p>","0","corr_feedback","1","train","19","","","","","","","",""
"","","","","","","","","","","","html-button-response","143","2.0.0","524298","66e8648522905b612ef32882","1","52","6495","","","","","","","","","<img src= ""rock_img/I_Peridotite_10.jpg"" style=""width:8cm; height:5.390000000000001cm;""><p>What type of rock is this?</p>","6","class_response","1","train","20","Peridotite","Peridotite","10","true","7","7","",""
"","","","","","","","","","","","html-button-response","144","2.0.0","530210","66e8648522905b612ef32882","1","52","5910","","","","","","","","","<img src= rock_img/I_Peridotite_10.jpg style=""width:8cm; height:5.390000000000001cm;""><p style='font-size: 30px; color: green;'><strong>Correct!</strong></p><p style='font-size: 30px;'><strong>This rock is peridotite</strong></p>","0","corr_feedback","1","train","20","","","","","","","",""
"","","","","","","","","","","","html-button-response","145","2.0.0","532241","66e8648522905b612ef32882","1","52","2030","","","","","","","","","<img src= ""rock_img/I_Peridotite_04.jpg"" style=""width:8cm; height:6.680000000000001cm;""><p>What type of rock is this?</p>","3","class_response","1","train","21","Gabbro","Peridotite","04","false","4","7","",""
"","","","","","","","","","","","html-button-response","146","2.0.0","534642","66e8648522905b612ef32882","1","52","2399","","","","","","","","","<img src= rock_img/I_Peridotite_04.jpg style=""width:8cm; height:6.680000000000001cm;""><p style='font-size: 30px; color: red;'><strong>Incorrect!</strong></p><p style='font-size: 30px;'><strong>This rock is peridotite</strong></p>","0","corr_feedback","1","train","21","","","","","","","",""
"","","","","","","","","","","","html-button-response","147","2.0.0","540618","66e8648522905b612ef32882","1","52","5974","","","","","","","","","<img src= ""rock_img/I_Basalt_14.jpg"" style=""width:8cm; height:5.82cm;""><p>What type of rock is this?</p>","1","class_response","1","train","22","Basalt","Basalt","14","true","2","2","",""
"","","","","","","","","","","","html-button-response","148","2.0.0","543522","66e8648522905b612ef32882","1","52","2902","","","","","","","","","<img src= rock_img/I_Basalt_14.jpg style=""width:8cm; height:5.82cm;""><p style='font-size: 30px; color: green;'><strong>Correct!</strong></p><p style='font-size: 30px;'><strong>This rock is basalt</strong></p>","0","corr_feedback","1","train","22","","","","","","","",""
"","","","","","","","","","","","html-button-response","149","2.0.0","546082","66e8648522905b612ef32882","1","52","2559","","","","","","","","","<img src= ""rock_img/I_Gabbro_11.jpg"" style=""width:8cm; height:6.2cm;""><p>What type of rock is this?</p>","6","class_response","1","train","23","Peridotite","Gabbro","11","false","7","4","",""
"","","","","","","","","","","","html-button-response","150","2.0.0","548362","66e8648522905b612ef32882","1","52","2279","","","","","","","","","<img src= rock_img/I_Gabbro_11.jpg style=""width:8cm; height:6.2cm;""><p style='font-size: 30px; color: red;'><strong>Incorrect!</strong></p><p style='font-size: 30px;'><strong>This rock is gabbro</strong></p>","0","corr_feedback","1","train","23","","","","","","","",""
"","","","","","","","","","","","html-button-response","151","2.0.0","550658","66e8648522905b612ef32882","1","52","2294","","","","","","","","","<img src= ""rock_img/I_Basalt_02.jpg"" style=""width:8cm; height:6.45cm;""><p>What type of rock is this?</p>","4","class_response","1","train","24","Obsidian","Basalt","02","false","5","2","",""
"","","","","","","","","","","","html-button-response","152","2.0.0","552425","66e8648522905b612ef32882","1","52","1765","","","","","","","","","<img src= rock_img/I_Basalt_02.jpg style=""width:8cm; height:6.45cm;""><p style='font-size: 30px; color: red;'><strong>Incorrect!</strong></p><p style='font-size: 30px;'><strong>This rock is basalt</strong></p>","0","corr_feedback","1","train","24","","","","","","","",""
"","","","","","","","","","","","html-button-response","153","2.0.0","555305","66e8648522905b612ef32882","1","52","2878","","","","","","","","","<img src= ""rock_img/I_Basalt_09.jpg"" style=""width:8cm; height:6.2cm;""><p>What type of rock is this?</p>","3","class_response","1","train","25","Gabbro","Basalt","09","false","4","2","",""
"","","","","","","","","","","","html-button-response","154","2.0.0","556890","66e8648522905b612ef32882","1","52","1583","","","","","","","","","<img src= rock_img/I_Basalt_09.jpg style=""width:8cm; height:6.2cm;""><p style='font-size: 30px; color: red;'><strong>Incorrect!</strong></p><p style='font-size: 30px;'><strong>This rock is basalt</strong></p>","0","corr_feedback","1","train","25","","","","","","","",""
"","","","","","","","","","","","html-button-response","155","2.0.0","558650","66e8648522905b612ef32882","1","52","1758","","","","","","","","","<img src= ""rock_img/I_Pumice_04.jpg"" style=""width:8cm; height:6.819999999999999cm;""><p>What type of rock is this?</p>","7","class_response","1","train","26","Pumice","Pumice","04","true","8","8","",""
"","","","","","","","","","","","html-button-response","156","2.0.0","561210","66e8648522905b612ef32882","1","52","2558","","","","","","","","","<img src= rock_img/I_Pumice_04.jpg style=""width:8cm; height:6.819999999999999cm;""><p style='font-size: 30px; color: green;'><strong>Correct!</strong></p><p style='font-size: 30px;'><strong>This rock is pumice</strong></p>","0","corr_feedback","1","train","26","","","","","","","",""
"","","","","","","","","","","","html-button-response","157","2.0.0","563594","66e8648522905b612ef32882","1","52","2382","","","","","","","","","<img src= ""rock_img/I_Basalt_10.jpg"" style=""width:8cm; height:5.85cm;""><p>What type of rock is this?</p>","4","class_response","1","train","27","Obsidian","Basalt","10","false","5","2","",""
"","","","","","","","","","","","html-button-response","158","2.0.0","566474","66e8648522905b612ef32882","1","52","2878","","","","","","","","","<img src= rock_img/I_Basalt_10.jpg style=""width:8cm; height:5.85cm;""><p style='font-size: 30px; color: red;'><strong>Incorrect!</strong></p><p style='font-size: 30px;'><strong>This rock is basalt</strong></p>","0","corr_feedback","1","train","27","","","","","","","",""
"","","","","","","","","","","","html-button-response","159","2.0.0","570890","66e8648522905b612ef32882","1","52","4415","","","","","","","","","<img src= ""rock_img/I_Andesite_05.jpg"" style=""width:8cm; height:4.12cm;""><p>What type of rock is this?</p>","3","class_response","1","train","28","Gabbro","Andesite","05","false","4","1","",""
"","","","","","","","","","","","html-button-response","160","2.0.0","572609","66e8648522905b612ef32882","1","52","1717","","","","","","","","","<img src= rock_img/I_Andesite_05.jpg style=""width:8cm; height:4.12cm;""><p style='font-size: 30px; color: red;'><strong>Incorrect!</strong></p><p style='font-size: 30px;'><strong>This rock is andesite</strong></p>","0","corr_feedback","1","train","28","","","","","","","",""
"","","","","","","","","","","","html-button-response","161","2.0.0","575426","66e8648522905b612ef32882","1","52","2815","","","","","","","","","<img src= ""rock_img/I_Andesite_01.jpg"" style=""width:8cm; height:5.87cm;""><p>What type of rock is this?</p>","0","class_response","1","train","29","Andesite","Andesite","01","true","1","1","",""
"","","","","","","","","","","","html-button-response","162","2.0.0","580554","66e8648522905b612ef32882","1","52","5126","","","","","","","","","<img src= rock_img/I_Andesite_01.jpg style=""width:8cm; height:5.87cm;""><p style='font-size: 30px; color: green;'><strong>Correct!</strong></p><p style='font-size: 30px;'><strong>This rock is andesite</strong></p>","0","corr_feedback","1","train","29","","","","","","","",""
"","","","","","","","","","","","html-button-response","163","2.0.0","619801","66e8648522905b612ef32882","1","52","39246","","","","","","","","","<img src= ""rock_img/I_Gabbro_15.jpg"" style=""width:8cm; height:6.29cm;""><p>What type of rock is this?</p>","3","class_response","1","train","30","Gabbro","Gabbro","15","true","4","4","",""
"","","","","","","","","","","","html-button-response","164","2.0.0","627586","66e8648522905b612ef32882","1","52","7784","","","","","","","","","<img src= rock_img/I_Gabbro_15.jpg style=""width:8cm; height:6.29cm;""><p style='font-size: 30px; color: green;'><strong>Correct!</strong></p><p style='font-size: 30px;'><strong>This rock is gabbro</strong></p>","0","corr_feedback","1","train","30","","","","","","","",""
"","","","","","","","","","","","html-button-response","165","2.0.0","631738","66e8648522905b612ef32882","1","52","4150","","","","","","","","","<img src= ""rock_img/I_Pumice_06.jpg"" style=""width:8cm; height:6.9399999999999995cm;""><p>What type of rock is this?</p>","6","class_response","1","train","31","Peridotite","Pumice","06","false","7","8","",""
"","","","","","","","","","","","html-button-response","166","2.0.0","634362","66e8648522905b612ef32882","1","52","2623","","","","","","","","","<img src= rock_img/I_Pumice_06.jpg style=""width:8cm; height:6.9399999999999995cm;""><p style='font-size: 30px; color: red;'><strong>Incorrect!</strong></p><p style='font-size: 30px;'><strong>This rock is pumice</strong></p>","0","corr_feedback","1","train","31","","","","","","","",""
"","","","","","","","","","","","html-button-response","167","2.0.0","636745","66e8648522905b612ef32882","1","52","2382","","","","","","","","","<img src= ""rock_img/I_Gabbro_01.jpg"" style=""width:8cm; height:5.21cm;""><p>What type of rock is this?</p>","6","class_response","1","train","32","Peridotite","Gabbro","01","false","7","4","",""
"","","","","","","","","","","","html-button-response","168","2.0.0","638146","66e8648522905b612ef32882","1","52","1398","","","","","","","","","<img src= rock_img/I_Gabbro_01.jpg style=""width:8cm; height:5.21cm;""><p style='font-size: 30px; color: red;'><strong>Incorrect!</strong></p><p style='font-size: 30px;'><strong>This rock is gabbro</strong></p>","0","corr_feedback","1","train","32","","","","","","","",""
"","","","","","","","","","","","html-button-response","169","2.0.0","640801","66e8648522905b612ef32882","1","52","2654","","","","","","","","","<img src= ""rock_img/I_Diorite_02.jpg"" style=""width:8cm; height:6.27cm;""><p>What type of rock is this?</p>","1","class_response","1","train","33","Basalt","Diorite","02","false","2","3","",""
"","","","","","","","","","","","html-button-response","170","2.0.0","642594","66e8648522905b612ef32882","1","52","1791","","","","","","","","","<img src= rock_img/I_Diorite_02.jpg style=""width:8cm; height:6.27cm;""><p style='font-size: 30px; color: red;'><strong>Incorrect!</strong></p><p style='font-size: 30px;'><strong>This rock is diorite</strong></p>","0","corr_feedback","1","train","33","","","","","","","",""
"","","","","","","","","","","","html-button-response","171","2.0.0","645314","66e8648522905b612ef32882","1","52","2718","","","","","","","","","<img src= ""rock_img/I_Andesite_09.jpg"" style=""width:8cm; height:6cm;""><p>What type of rock is this?</p>","5","class_response","1","train","34","Pegmatite","Andesite","09","false","6","1","",""
"","","","","","","","","","","","html-button-response","172","2.0.0","647066","66e8648522905b612ef32882","1","52","1751","","","","","","","","","<img src= rock_img/I_Andesite_09.jpg style=""width:8cm; height:6cm;""><p style='font-size: 30px; color: red;'><strong>Incorrect!</strong></p><p style='font-size: 30px;'><strong>This rock is andesite</strong></p>","0","corr_feedback","1","train","34","","","","","","","",""
"","","","","","","","","","","","html-button-response","173","2.0.0","648945","66e8648522905b612ef32882","1","52","1878","","","","","","","","","<img src= ""rock_img/I_Obsidian_11.jpg"" style=""width:8cm; height:6.05cm;""><p>What type of rock is this?</p>","4","class_response","1","train","35","Obsidian","Obsidian","11","true","5","5","",""
"","","","","","","","","","","","html-button-response","174","2.0.0","650241","66e8648522905b612ef32882","1","52","1294","","","","","","","","","<img src= rock_img/I_Obsidian_11.jpg style=""width:8cm; height:6.05cm;""><p style='font-size: 30px; color: green;'><strong>Correct!</strong></p><p style='font-size: 30px;'><strong>This rock is obsidian</strong></p>","0","corr_feedback","1","train","35","","","","","","","",""
"","","","","","","","","","","","html-button-response","175","2.0.0","655410","66e8648522905b612ef32882","1","52","5167","","","","","","","","","<img src= ""rock_img/I_Diorite_15.jpg"" style=""width:8cm; height:5.54cm;""><p>What type of rock is this?</p>","2","class_response","1","train","36","Diorite","Diorite","15","true","3","3","",""
"","","","","","","","","","","","html-button-response","176","2.0.0","657690","66e8648522905b612ef32882","1","52","2279","","","","","","","","","<img src= rock_img/I_Diorite_15.jpg style=""width:8cm; height:5.54cm;""><p style='font-size: 30px; color: green;'><strong>Correct!</strong></p><p style='font-size: 30px;'><strong>This rock is diorite</strong></p>","0","corr_feedback","1","train","36","","","","","","","",""
"","","","","","","","","","","","html-button-response","177","2.0.0","662602","66e8648522905b612ef32882","1","52","4910","","","","","","","","","<img src= ""rock_img/I_Pumice_15.jpg"" style=""width:8cm; height:7.86cm;""><p>What type of rock is this?</p>","7","class_response","1","train","37","Pumice","Pumice","15","true","8","8","",""
"","","","","","","","","","","","html-button-response","178","2.0.0","664050","66e8648522905b612ef32882","1","52","1446","","","","","","","","","<img src= rock_img/I_Pumice_15.jpg style=""width:8cm; height:7.86cm;""><p style='font-size: 30px; color: green;'><strong>Correct!</strong></p><p style='font-size: 30px;'><strong>This rock is pumice</strong></p>","0","corr_feedback","1","train","37","","","","","","","",""
"","","","","","","","","","","","html-button-response","179","2.0.0","671482","66e8648522905b612ef32882","1","52","7431","","","","","","","","","<img src= ""rock_img/I_Pegmatite_03.jpg"" style=""width:8cm; height:5.239999999999999cm;""><p>What type of rock is this?</p>","5","class_response","1","train","38","Pegmatite","Pegmatite","03","true","6","6","",""
"","","","","","","","","","","","html-button-response","180","2.0.0","674066","66e8648522905b612ef32882","1","52","2582","","","","","","","","","<img src= rock_img/I_Pegmatite_03.jpg style=""width:8cm; height:5.239999999999999cm;""><p style='font-size: 30px; color: green;'><strong>Correct!</strong></p><p style='font-size: 30px;'><strong>This rock is pegmatite</strong></p>","0","corr_feedback","1","train","38","","","","","","","",""
"","","","","","","","","","","","html-button-response","181","2.0.0","677498","66e8648522905b612ef32882","1","52","3430","","","","","","","","","<img src= ""rock_img/I_Pegmatite_11.jpg"" style=""width:8cm; height:8.14cm;""><p>What type of rock is this?</p>","4","class_response","1","train","39","Obsidian","Pegmatite","11","false","5","6","",""
"","","","","","","","","","","","html-button-response","182","2.0.0","679730","66e8648522905b612ef32882","1","52","2231","","","","","","","","","<img src= rock_img/I_Pegmatite_11.jpg style=""width:8cm; height:8.14cm;""><p style='font-size: 30px; color: red;'><strong>Incorrect!</strong></p><p style='font-size: 30px;'><strong>This rock is pegmatite</strong></p>","0","corr_feedback","1","train","39","","","","","","","",""
"","","","","","","","","","","","html-button-response","183","2.0.0","681378","66e8648522905b612ef32882","1","52","1647","","","","","","","","","<img src= ""rock_img/I_Obsidian_09.jpg"" style=""width:8cm; height:5cm;""><p>What type of rock is this?</p>","4","class_response","1","train","40","Obsidian","Obsidian","09","true","5","5","",""
"","","","","","","","","","","","html-button-response","184","2.0.0","682674","66e8648522905b612ef32882","1","52","1294","","","","","","","","","<img src= rock_img/I_Obsidian_09.jpg style=""width:8cm; height:5cm;""><p style='font-size: 30px; color: green;'><strong>Correct!</strong></p><p style='font-size: 30px;'><strong>This rock is obsidian</strong></p>","0","corr_feedback","1","train","40","","","","","","","",""
"","","","","","","","","","","","html-button-response","185","2.0.0","686074","66e8648522905b612ef32882","1","52","3399","","","","","","","","","<img src= ""rock_img/I_Gabbro_09.jpg"" style=""width:8cm; height:7.279999999999999cm;""><p>What type of rock is this?</p>","1","class_response","1","train","41","Basalt","Gabbro","09","false","2","4","",""
"","","","","","","","","","","","html-button-response","186","2.0.0","687610","66e8648522905b612ef32882","1","52","1534","","","","","","","","","<img src= rock_img/I_Gabbro_09.jpg style=""width:8cm; height:7.279999999999999cm;""><p style='font-size: 30px; color: red;'><strong>Incorrect!</strong></p><p style='font-size: 30px;'><strong>This rock is gabbro</strong></p>","0","corr_feedback","1","train","41","","","","","","","",""
"","","","","","","","","","","","html-button-response","187","2.0.0","690138","66e8648522905b612ef32882","1","52","2526","","","","","","","","","<img src= ""rock_img/I_Andesite_14.jpg"" style=""width:8cm; height:5.449999999999999cm;""><p>What type of rock is this?</p>","2","class_response","1","train","42","Diorite","Andesite","14","false","3","1","",""
"","","","","","","","","","","","html-button-response","188","2.0.0","691562","66e8648522905b612ef32882","1","52","1423","","","","","","","","","<img src= rock_img/I_Andesite_14.jpg style=""width:8cm; height:5.449999999999999cm;""><p style='font-size: 30px; color: red;'><strong>Incorrect!</strong></p><p style='font-size: 30px;'><strong>This rock is andesite</strong></p>","0","corr_feedback","1","train","42","","","","","","","",""
"","","","","","","","","","","","html-button-response","189","2.0.0","694322","66e8648522905b612ef32882","1","52","2758","","","","","","","","","<img src= ""rock_img/I_Pegmatite_13.jpg"" style=""width:8cm; height:4.95cm;""><p>What type of rock is this?</p>","5","class_response","1","train","43","Pegmatite","Pegmatite","13","true","6","6","",""
"","","","","","","","","","","","html-button-response","190","2.0.0","696026","66e8648522905b612ef32882","1","52","1703","","","","","","","","","<img src= rock_img/I_Pegmatite_13.jpg style=""width:8cm; height:4.95cm;""><p style='font-size: 30px; color: green;'><strong>Correct!</strong></p><p style='font-size: 30px;'><strong>This rock is pegmatite</strong></p>","0","corr_feedback","1","train","43","","","","","","","",""
"","","","","","","","","","","","html-button-response","191","2.0.0","700010","66e8648522905b612ef32882","1","52","3983","","","","","","","","","<img src= ""rock_img/I_Diorite_06.jpg"" style=""width:8cm; height:6.03cm;""><p>What type of rock is this?</p>","0","class_response","1","train","44","Andesite","Diorite","06","false","1","3","",""
"","","","","","","","","","","","html-button-response","192","2.0.0","701834","66e8648522905b612ef32882","1","52","1822","","","","","","","","","<img src= rock_img/I_Diorite_06.jpg style=""width:8cm; height:6.03cm;""><p style='font-size: 30px; color: red;'><strong>Incorrect!</strong></p><p style='font-size: 30px;'><strong>This rock is diorite</strong></p>","0","corr_feedback","1","train","44","","","","","","","",""
"","","","","","","","","","","","html-button-response","193","2.0.0","704538","66e8648522905b612ef32882","1","52","2703","","","","","","","","","<img src= ""rock_img/I_Pegmatite_07.jpg"" style=""width:8cm; height:6.7cm;""><p>What type of rock is this?</p>","5","class_response","1","train","45","Pegmatite","Pegmatite","07","true","6","6","",""
"","","","","","","","","","","","html-button-response","194","2.0.0","706217","66e8648522905b612ef32882","1","52","1677","","","","","","","","","<img src= rock_img/I_Pegmatite_07.jpg style=""width:8cm; height:6.7cm;""><p style='font-size: 30px; color: green;'><strong>Correct!</strong></p><p style='font-size: 30px;'><strong>This rock is pegmatite</strong></p>","0","corr_feedback","1","train","45","","","","","","","",""
"","","","","","","","","","","","html-button-response","195","2.0.0","708258","66e8648522905b612ef32882","1","52","2040","","","","","","","","","<img src= ""rock_img/I_Gabbro_13.jpg"" style=""width:8cm; height:5.08cm;""><p>What type of rock is this?</p>","2","class_response","1","train","46","Diorite","Gabbro","13","false","3","4","",""
"","","","","","","","","","","","html-button-response","196","2.0.0","709954","66e8648522905b612ef32882","1","52","1694","","","","","","","","","<img src= rock_img/I_Gabbro_13.jpg style=""width:8cm; height:5.08cm;""><p style='font-size: 30px; color: red;'><strong>Incorrect!</strong></p><p style='font-size: 30px;'><strong>This rock is gabbro</strong></p>","0","corr_feedback","1","train","46","","","","","","","",""
"","","","","","","","","","","","html-button-response","197","2.0.0","716882","66e8648522905b612ef32882","1","52","6926","","","","","","","","","<img src= ""rock_img/I_Peridotite_12.jpg"" style=""width:8cm; height:4.54cm;""><p>What type of rock is this?</p>","7","class_response","1","train","47","Pumice","Peridotite","12","false","8","7","",""
"","","","","","","","","","","","html-button-response","198","2.0.0","718610","66e8648522905b612ef32882","1","52","1727","","","","","","","","","<img src= rock_img/I_Peridotite_12.jpg style=""width:8cm; height:4.54cm;""><p style='font-size: 30px; color: red;'><strong>Incorrect!</strong></p><p style='font-size: 30px;'><strong>This rock is peridotite</strong></p>","0","corr_feedback","1","train","47","","","","","","","",""
"","","","","","","","","","","","html-button-response","199","2.0.0","720953","66e8648522905b612ef32882","1","52","2342","","","","","","","","","<img src= ""rock_img/I_Pumice_09.jpg"" style=""width:8cm; height:6.44cm;""><p>What type of rock is this?</p>","7","class_response","1","train","48","Pumice","Pumice","09","true","8","8","",""
"","","","","","","","","","","","html-button-response","200","2.0.0","722298","66e8648522905b612ef32882","1","52","1343","","","","","","","","","<img src= rock_img/I_Pumice_09.jpg style=""width:8cm; height:6.44cm;""><p style='font-size: 30px; color: green;'><strong>Correct!</strong></p><p style='font-size: 30px;'><strong>This rock is pumice</strong></p>","0","corr_feedback","1","train","48","","","","","","","",""
"","","","","","","","","","","","instructions","203","2.0.0","756377","66e8648522905b612ef32882","1","52","34079","","","","","","","","[{""page_index"":0,""viewing_time"":12846},{""page_index"":1,""viewing_time"":21232}]","","","","","","","","","","","","","",""
"","","","","","","","","","","","html-button-response","204","2.0.0","759826","66e8648522905b612ef32882","1","52","3446","","","","","","","","","","0","start_test","","","","","","","","","","",""
"","","","","","","","","","","","html-button-response","205","2.0.0","767066","66e8648522905b612ef32882","1","52","7239","","","","","","","","","<img src= ""rock_img/I_Gabbro_05.jpg"" style=""width:8cm; height:6cm;""><p>What type of rock is this?</p>","3","class_response","1","test","1","Gabbro","Gabbro","05","true","4","4","",""
"","","","","","","","","","","","html-keyboard-response","206","2.0.0","767572","66e8648522905b612ef32882","1","52","null","","","","","","","","","<p style='font-size: 30px;'><strong>Okay</strong></p>","null","neutral_feedback","1","test","1","","","","","","","",""
"","","","","","","","","","","","html-button-response","207","2.0.0","779322","66e8648522905b612ef32882","1","52","11748","","","","","","","","","<img src= ""rock_img/I_Pumice_03.jpg"" style=""width:8cm; height:6.64cm;""><p>What type of rock is this?</p>","6","class_response","1","test","2","Peridotite","Pumice","03","false","7","8","",""
"","","","","","","","","","","","html-keyboard-response","208","2.0.0","779824","66e8648522905b612ef32882","1","52","null","","","","","","","","","<p style='font-size: 30px;'><strong>Okay</strong></p>","null","neutral_feedback","1","test","2","","","","","","","",""
"","","","","","","","","","","","html-button-response","209","2.0.0","783210","66e8648522905b612ef32882","1","52","3384","","","","","","","","","<img src= ""rock_img/I_Obsidian_16.jpg"" style=""width:8cm; height:9.3cm;""><p>What type of rock is this?</p>","4","class_response","1","test","3","Obsidian","Obsidian","16","true","5","5","",""
"","","","","","","","","","","","html-keyboard-response","210","2.0.0","783712","66e8648522905b612ef32882","1","52","null","","","","","","","","","<p style='font-size: 30px;'><strong>Okay</strong></p>","null","neutral_feedback","1","test","3","","","","","","","",""
"","","","","","","","","","","","html-button-response","211","2.0.0","788113","66e8648522905b612ef32882","1","52","4401","","","","","","","","","<img src= ""rock_img/I_Pegmatite_15.jpg"" style=""width:8cm; height:6cm;""><p>What type of rock is this?</p>","3","class_response","1","test","4","Gabbro","Pegmatite","15","false","4","6","",""
"","","","","","","","","","","","html-keyboard-response","212","2.0.0","788614","66e8648522905b612ef32882","1","52","null","","","","","","","","","<p style='font-size: 30px;'><strong>Okay</strong></p>","null","neutral_feedback","1","test","4","","","","","","","",""
"","","","","","","","","","","","html-button-response","213","2.0.0","792506","66e8648522905b612ef32882","1","52","3890","","","","","","","","","<img src= ""rock_img/I_Peridotite_14.jpg"" style=""width:8cm; height:5.3cm;""><p>What type of rock is this?</p>","6","class_response","1","test","5","Peridotite","Peridotite","14","true","7","7","",""
"","","","","","","","","","","","html-keyboard-response","214","2.0.0","793008","66e8648522905b612ef32882","1","52","null","","","","","","","","","<p style='font-size: 30px;'><strong>Okay</strong></p>","null","neutral_feedback","1","test","5","","","","","","","",""
"","","","","","","","","","","","html-button-response","215","2.0.0","795106","66e8648522905b612ef32882","1","52","2097","","","","","","","","","<img src= ""rock_img/I_Pegmatite_06.jpg"" style=""width:8cm; height:5.17cm;""><p>What type of rock is this?</p>","0","class_response","1","test","6","Andesite","Pegmatite","06","false","1","6","",""
"","","","","","","","","","","","html-keyboard-response","216","2.0.0","795607","66e8648522905b612ef32882","1","52","null","","","","","","","","","<p style='font-size: 30px;'><strong>Okay</strong></p>","null","neutral_feedback","1","test","6","","","","","","","",""
"","","","","","","","","","","","html-button-response","217","2.0.0","797339","66e8648522905b612ef32882","1","52","1730","","","","","","","","","<img src= ""rock_img/I_Obsidian_02.jpg"" style=""width:8cm; height:7.51cm;""><p>What type of rock is this?</p>","4","class_response","1","test","7","Obsidian","Obsidian","02","true","5","5","",""
"","","","","","","","","","","","html-keyboard-response","218","2.0.0","797843","66e8648522905b612ef32882","1","52","null","","","","","","","","","<p style='font-size: 30px;'><strong>Okay</strong></p>","null","neutral_feedback","1","test","7","","","","","","","",""
"","","","","","","","","","","","html-button-response","219","2.0.0","805602","66e8648522905b612ef32882","1","52","7758","","","","","","","","","<img src= ""rock_img/I_Diorite_08.jpg"" style=""width:8cm; height:6.37cm;""><p>What type of rock is this?</p>","6","class_response","1","test","8","Peridotite","Diorite","08","false","7","3","",""
"","","","","","","","","","","","html-keyboard-response","220","2.0.0","806104","66e8648522905b612ef32882","1","52","null","","","","","","","","","<p style='font-size: 30px;'><strong>Okay</strong></p>","null","neutral_feedback","1","test","8","","","","","","","",""
"","","","","","","","","","","","html-button-response","221","2.0.0","808882","66e8648522905b612ef32882","1","52","2777","","","","","","","","","<img src= ""rock_img/I_Gabbro_08.jpg"" style=""width:8cm; height:5.15cm;""><p>What type of rock is this?</p>","3","class_response","1","test","9","Gabbro","Gabbro","08","true","4","4","",""
"","","","","","","","","","","","html-keyboard-response","222","2.0.0","809383","66e8648522905b612ef32882","1","52","null","","","","","","","","","<p style='font-size: 30px;'><strong>Okay</strong></p>","null","neutral_feedback","1","test","9","","","","","","","",""
"","","","","","","","","","","","html-button-response","223","2.0.0","813651","66e8648522905b612ef32882","1","52","4267","","","","","","","","","<img src= ""rock_img/I_Gabbro_14.jpg"" style=""width:8cm; height:8.48cm;""><p>What type of rock is this?</p>","2","class_response","1","test","10","Diorite","Gabbro","14","false","3","4","",""
"","","","","","","","","","","","html-keyboard-response","224","2.0.0","814153","66e8648522905b612ef32882","1","52","null","","","","","","","","","<p style='font-size: 30px;'><strong>Okay</strong></p>","null","neutral_feedback","1","test","10","","","","","","","",""
"","","","","","","","","","","","html-button-response","225","2.0.0","816082","66e8648522905b612ef32882","1","52","1927","","","","","","","","","<img src= ""rock_img/I_Pumice_02.jpg"" style=""width:8cm; height:7.3999999999999995cm;""><p>What type of rock is this?</p>","7","class_response","1","test","11","Pumice","Pumice","02","true","8","8","",""
"","","","","","","","","","","","html-keyboard-response","226","2.0.0","816589","66e8648522905b612ef32882","1","52","null","","","","","","","","","<p style='font-size: 30px;'><strong>Okay</strong></p>","null","neutral_feedback","1","test","11","","","","","","","",""
"","","","","","","","","","","","html-button-response","227","2.0.0","818786","66e8648522905b612ef32882","1","52","2196","","","","","","","","","<img src= ""rock_img/I_Andesite_11.jpg"" style=""width:8cm; height:4.92cm;""><p>What type of rock is this?</p>","5","class_response","1","test","12","Pegmatite","Andesite","11","false","6","1","",""
"","","","","","","","","","","","html-keyboard-response","228","2.0.0","819287","66e8648522905b612ef32882","1","52","null","","","","","","","","","<p style='font-size: 30px;'><strong>Okay</strong></p>","null","neutral_feedback","1","test","12","","","","","","","",""
"","","","","","","","","","","","html-button-response","229","2.0.0","823554","66e8648522905b612ef32882","1","52","4266","","","","","","","","","<img src= ""rock_img/I_Diorite_11.jpg"" style=""width:8cm; height:7.11cm;""><p>What type of rock is this?</p>","0","class_response","1","test","13","Andesite","Diorite","11","false","1","3","",""
"","","","","","","","","","","","html-keyboard-response","230","2.0.0","824056","66e8648522905b612ef32882","1","52","null","","","","","","","","","<p style='font-size: 30px;'><strong>Okay</strong></p>","null","neutral_feedback","1","test","13","","","","","","","",""
"","","","","","","","","","","","html-button-response","231","2.0.0","826971","66e8648522905b612ef32882","1","52","2913","","","","","","","","","<img src= ""rock_img/I_Basalt_11.jpg"" style=""width:8cm; height:5.359999999999999cm;""><p>What type of rock is this?</p>","3","class_response","1","test","14","Gabbro","Basalt","11","false","4","2","",""
"","","","","","","","","","","","html-keyboard-response","232","2.0.0","827472","66e8648522905b612ef32882","1","52","null","","","","","","","","","<p style='font-size: 30px;'><strong>Okay</strong></p>","null","neutral_feedback","1","test","14","","","","","","","",""
"","","","","","","","","","","","html-button-response","233","2.0.0","829994","66e8648522905b612ef32882","1","52","2520","","","","","","","","","<img src= ""rock_img/I_Pegmatite_05.jpg"" style=""width:8cm; height:7.300000000000001cm;""><p>What type of rock is this?</p>","6","class_response","1","test","15","Peridotite","Pegmatite","05","false","7","6","",""
"","","","","","","","","","","","html-keyboard-response","234","2.0.0","830495","66e8648522905b612ef32882","1","52","null","","","","","","","","","<p style='font-size: 30px;'><strong>Okay</strong></p>","null","neutral_feedback","1","test","15","","","","","","","",""
"","","","","","","","","","","","html-button-response","235","2.0.0","833626","66e8648522905b612ef32882","1","52","3130","","","","","","","","","<img src= ""rock_img/I_Andesite_04.jpg"" style=""width:8cm; height:5.96cm;""><p>What type of rock is this?</p>","2","class_response","1","test","16","Diorite","Andesite","04","false","3","1","",""
"","","","","","","","","","","","html-keyboard-response","236","2.0.0","834128","66e8648522905b612ef32882","1","52","null","","","","","","","","","<p style='font-size: 30px;'><strong>Okay</strong></p>","null","neutral_feedback","1","test","16","","","","","","","",""
"","","","","","","","","","","","html-button-response","237","2.0.0","837290","66e8648522905b612ef32882","1","52","3161","","","","","","","","","<img src= ""rock_img/I_Pumice_08.jpg"" style=""width:8cm; height:6.67cm;""><p>What type of rock is this?</p>","3","class_response","1","test","17","Gabbro","Pumice","08","false","4","8","",""
"","","","","","","","","","","","html-keyboard-response","238","2.0.0","837791","66e8648522905b612ef32882","1","52","null","","","","","","","","","<p style='font-size: 30px;'><strong>Okay</strong></p>","null","neutral_feedback","1","test","17","","","","","","","",""
"","","","","","","","","","","","html-button-response","239","2.0.0","840042","66e8648522905b612ef32882","1","52","2250","","","","","","","","","<img src= ""rock_img/I_Pegmatite_16.jpg"" style=""width:8cm; height:5.8cm;""><p>What type of rock is this?</p>","5","class_response","1","test","18","Pegmatite","Pegmatite","16","true","6","6","",""
"","","","","","","","","","","","html-keyboard-response","240","2.0.0","840544","66e8648522905b612ef32882","1","52","null","","","","","","","","","<p style='font-size: 30px;'><strong>Okay</strong></p>","null","neutral_feedback","1","test","18","","","","","","","",""
"","","","","","","","","","","","html-button-response","241","2.0.0","846018","66e8648522905b612ef32882","1","52","5473","","","","","","","","","<img src= ""rock_img/I_Diorite_16.jpg"" style=""width:8cm; height:6.74cm;""><p>What type of rock is this?</p>","6","class_response","1","test","19","Peridotite","Diorite","16","false","7","3","",""
"","","","","","","","","","","","html-keyboard-response","242","2.0.0","846529","66e8648522905b612ef32882","1","52","null","","","","","","","","","<p style='font-size: 30px;'><strong>Okay</strong></p>","null","neutral_feedback","1","test","19","","","","","","","",""
"","","","","","","","","","","","html-button-response","243","2.0.0","848850","66e8648522905b612ef32882","1","52","2319","","","","","","","","","<img src= ""rock_img/I_Basalt_08.jpg"" style=""width:8cm; height:10.44cm;""><p>What type of rock is this?</p>","1","class_response","1","test","20","Basalt","Basalt","08","true","2","2","",""
"","","","","","","","","","","","html-keyboard-response","244","2.0.0","849352","66e8648522905b612ef32882","1","52","null","","","","","","","","","<p style='font-size: 30px;'><strong>Okay</strong></p>","null","neutral_feedback","1","test","20","","","","","","","",""
"","","","","","","","","","","","html-button-response","245","2.0.0","853675","66e8648522905b612ef32882","1","52","4320","","","","","","","","","<img src= ""rock_img/I_Peridotite_15.jpg"" style=""width:8cm; height:6cm;""><p>What type of rock is this?</p>","6","class_response","1","test","21","Peridotite","Peridotite","15","true","7","7","",""
"","","","","","","","","","","","html-keyboard-response","246","2.0.0","854177","66e8648522905b612ef32882","1","52","null","","","","","","","","","<p style='font-size: 30px;'><strong>Okay</strong></p>","null","neutral_feedback","1","test","21","","","","","","","",""
"","","","","","","","","","","","html-button-response","247","2.0.0","857498","66e8648522905b612ef32882","1","52","3320","","","","","","","","","<img src= ""rock_img/I_Obsidian_14.jpg"" style=""width:8cm; height:7.64cm;""><p>What type of rock is this?</p>","1","class_response","1","test","22","Basalt","Obsidian","14","false","2","5","",""
"","","","","","","","","","","","html-keyboard-response","248","2.0.0","858010","66e8648522905b612ef32882","1","52","null","","","","","","","","","<p style='font-size: 30px;'><strong>Okay</strong></p>","null","neutral_feedback","1","test","22","","","","","","","",""
"","","","","","","","","","","","html-button-response","249","2.0.0","859410","66e8648522905b612ef32882","1","52","1399","","","","","","","","","<img src= ""rock_img/I_Obsidian_04.jpg"" style=""width:8cm; height:6.930000000000001cm;""><p>What type of rock is this?</p>","4","class_response","1","test","23","Obsidian","Obsidian","04","true","5","5","",""
"","","","","","","","","","","","html-keyboard-response","250","2.0.0","859919","66e8648522905b612ef32882","1","52","null","","","","","","","","","<p style='font-size: 30px;'><strong>Okay</strong></p>","null","neutral_feedback","1","test","23","","","","","","","",""
"","","","","","","","","","","","html-button-response","251","2.0.0","862434","66e8648522905b612ef32882","1","52","2514","","","","","","","","","<img src= ""rock_img/I_Basalt_12.jpg"" style=""width:8cm; height:6.010000000000001cm;""><p>What type of rock is this?</p>","3","class_response","1","test","24","Gabbro","Basalt","12","false","4","2","",""
"","","","","","","","","","","","html-keyboard-response","252","2.0.0","862935","66e8648522905b612ef32882","1","52","null","","","","","","","","","<p style='font-size: 30px;'><strong>Okay</strong></p>","null","neutral_feedback","1","test","24","","","","","","","",""
"","","","","","","","","","","","html-button-response","253","2.0.0","867474","66e8648522905b612ef32882","1","52","4537","","","","","","","","","<img src= ""rock_img/I_Basalt_16.jpg"" style=""width:8cm; height:7.659999999999999cm;""><p>What type of rock is this?</p>","3","class_response","1","test","25","Gabbro","Basalt","16","false","4","2","",""
"","","","","","","","","","","","html-keyboard-response","254","2.0.0","867976","66e8648522905b612ef32882","1","52","null","","","","","","","","","<p style='font-size: 30px;'><strong>Okay</strong></p>","null","neutral_feedback","1","test","25","","","","","","","",""
"","","","","","","","","","","","html-button-response","255","2.0.0","869810","66e8648522905b612ef32882","1","52","1833","","","","","","","","","<img src= ""rock_img/I_Obsidian_08.jpg"" style=""width:8cm; height:7.39cm;""><p>What type of rock is this?</p>","4","class_response","1","test","26","Obsidian","Obsidian","08","true","5","5","",""
"","","","","","","","","","","","html-keyboard-response","256","2.0.0","870312","66e8648522905b612ef32882","1","52","null","","","","","","","","","<p style='font-size: 30px;'><strong>Okay</strong></p>","null","neutral_feedback","1","test","26","","","","","","","",""
"","","","","","","","","","","","html-button-response","257","2.0.0","872282","66e8648522905b612ef32882","1","52","1969","","","","","","","","","<img src= ""rock_img/I_Basalt_06.jpg"" style=""width:8cm; height:7.06cm;""><p>What type of rock is this?</p>","1","class_response","1","test","27","Basalt","Basalt","06","true","2","2","",""
"","","","","","","","","","","","html-keyboard-response","258","2.0.0","872783","66e8648522905b612ef32882","1","52","null","","","","","","","","","<p style='font-size: 30px;'><strong>Okay</strong></p>","null","neutral_feedback","1","test","27","","","","","","","",""
"","","","","","","","","","","","html-button-response","259","2.0.0","874978","66e8648522905b612ef32882","1","52","2193","","","","","","","","","<img src= ""rock_img/I_Peridotite_08.jpg"" style=""width:8cm; height:6.7cm;""><p>What type of rock is this?</p>","3","class_response","1","test","28","Gabbro","Peridotite","08","false","4","7","",""
"","","","","","","","","","","","html-keyboard-response","260","2.0.0","875489","66e8648522905b612ef32882","1","52","null","","","","","","","","","<p style='font-size: 30px;'><strong>Okay</strong></p>","null","neutral_feedback","1","test","28","","","","","","","",""
"","","","","","","","","","","","html-button-response","261","2.0.0","881322","66e8648522905b612ef32882","1","52","5832","","","","","","","","","<img src= ""rock_img/I_Gabbro_16.jpg"" style=""width:8cm; height:6.44cm;""><p>What type of rock is this?</p>","6","class_response","1","test","29","Peridotite","Gabbro","16","false","7","4","",""
"","","","","","","","","","","","html-keyboard-response","262","2.0.0","881824","66e8648522905b612ef32882","1","52","null","","","","","","","","","<p style='font-size: 30px;'><strong>Okay</strong></p>","null","neutral_feedback","1","test","29","","","","","","","",""
"","","","","","","","","","","","html-button-response","263","2.0.0","886786","66e8648522905b612ef32882","1","52","4959","","","","","","","","","<img src= ""rock_img/I_Andesite_10.jpg"" style=""width:8cm; height:4.16cm;""><p>What type of rock is this?</p>","3","class_response","1","test","30","Gabbro","Andesite","10","false","4","1","",""
"","","","","","","","","","","","html-keyboard-response","264","2.0.0","887299","66e8648522905b612ef32882","1","52","null","","","","","","","","","<p style='font-size: 30px;'><strong>Okay</strong></p>","null","neutral_feedback","1","test","30","","","","","","","",""
"","","","","","","","","","","","html-button-response","265","2.0.0","890042","66e8648522905b612ef32882","1","52","2742","","","","","","","","","<img src= ""rock_img/I_Pumice_10.jpg"" style=""width:8cm; height:7.609999999999999cm;""><p>What type of rock is this?</p>","7","class_response","1","test","31","Pumice","Pumice","10","true","8","8","",""
"","","","","","","","","","","","html-keyboard-response","266","2.0.0","890543","66e8648522905b612ef32882","1","52","null","","","","","","","","","<p style='font-size: 30px;'><strong>Okay</strong></p>","null","neutral_feedback","1","test","31","","","","","","","",""
"","","","","","","","","","","","html-button-response","267","2.0.0","897322","66e8648522905b612ef32882","1","52","6778","","","","","","","","","<img src= ""rock_img/I_Andesite_03.jpg"" style=""width:8cm; height:5.73cm;""><p>What type of rock is this?</p>","0","class_response","1","test","32","Andesite","Andesite","03","true","1","1","",""
"","","","","","","","","","","","html-keyboard-response","268","2.0.0","897824","66e8648522905b612ef32882","1","52","null","","","","","","","","","<p style='font-size: 30px;'><strong>Okay</strong></p>","null","neutral_feedback","1","test","32","","","","","","","",""
"","","","","","","","","","","","html-button-response","269","2.0.0","900474","66e8648522905b612ef32882","1","52","2648","","","","","","","","","<img src= ""rock_img/I_Pumice_05.jpg"" style=""width:8cm; height:7.25cm;""><p>What type of rock is this?</p>","3","class_response","1","test","33","Gabbro","Pumice","05","false","4","8","",""
"","","","","","","","","","","","html-keyboard-response","270","2.0.0","900976","66e8648522905b612ef32882","1","52","null","","","","","","","","","<p style='font-size: 30px;'><strong>Okay</strong></p>","null","neutral_feedback","1","test","33","","","","","","","",""
"","","","","","","","","","","","html-button-response","271","2.0.0","907610","66e8648522905b612ef32882","1","52","6632","","","","","","","","","<img src= ""rock_img/I_Basalt_01.jpg"" style=""width:8cm; height:7.880000000000001cm;""><p>What type of rock is this?</p>","2","class_response","1","test","34","Diorite","Basalt","01","false","3","2","",""
"","","","","","","","","","","","html-keyboard-response","272","2.0.0","908110","66e8648522905b612ef32882","1","52","null","","","","","","","","","<p style='font-size: 30px;'><strong>Okay</strong></p>","null","neutral_feedback","1","test","34","","","","","","","",""
"","","","","","","","","","","","html-button-response","273","2.0.0","910162","66e8648522905b612ef32882","1","52","2050","","","","","","","","","<img src= ""rock_img/I_Peridotite_02.jpg"" style=""width:8cm; height:5.859999999999999cm;""><p>What type of rock is this?</p>","6","class_response","1","test","35","Peridotite","Peridotite","02","true","7","7","",""
"","","","","","","","","","","","html-keyboard-response","274","2.0.0","910664","66e8648522905b612ef32882","1","52","null","","","","","","","","","<p style='font-size: 30px;'><strong>Okay</strong></p>","null","neutral_feedback","1","test","35","","","","","","","",""
"","","","","","","","","","","","html-button-response","275","2.0.0","912306","66e8648522905b612ef32882","1","52","1640","","","","","","","","","<img src= ""rock_img/I_Peridotite_07.jpg"" style=""width:8cm; height:4.83cm;""><p>What type of rock is this?</p>","2","class_response","1","test","36","Diorite","Peridotite","07","false","3","7","",""
"","","","","","","","","","","","html-keyboard-response","276","2.0.0","912808","66e8648522905b612ef32882","1","52","null","","","","","","","","","<p style='font-size: 30px;'><strong>Okay</strong></p>","null","neutral_feedback","1","test","36","","","","","","","",""
"","","","","","","","","","","","html-button-response","277","2.0.0","914714","66e8648522905b612ef32882","1","52","1905","","","","","","","","","<img src= ""rock_img/I_Obsidian_10.jpg"" style=""width:8cm; height:6.260000000000001cm;""><p>What type of rock is this?</p>","4","class_response","1","test","37","Obsidian","Obsidian","10","true","5","5","",""
"","","","","","","","","","","","html-keyboard-response","278","2.0.0","915217","66e8648522905b612ef32882","1","52","null","","","","","","","","","<p style='font-size: 30px;'><strong>Okay</strong></p>","null","neutral_feedback","1","test","37","","","","","","","",""
"","","","","","","","","","","","html-button-response","279","2.0.0","920026","66e8648522905b612ef32882","1","52","4808","","","","","","","","","<img src= ""rock_img/I_Andesite_02.jpg"" style=""width:8cm; height:8.5cm;""><p>What type of rock is this?</p>","3","class_response","1","test","38","Gabbro","Andesite","02","false","4","1","",""
"","","","","","","","","","","","html-keyboard-response","280","2.0.0","920528","66e8648522905b612ef32882","1","52","null","","","","","","","","","<p style='font-size: 30px;'><strong>Okay</strong></p>","null","neutral_feedback","1","test","38","","","","","","","",""
"","","","","","","","","","","","html-button-response","281","2.0.0","922394","66e8648522905b612ef32882","1","52","1865","","","","","","","","","<img src= ""rock_img/I_Pumice_14.jpg"" style=""width:8cm; height:6.39cm;""><p>What type of rock is this?</p>","7","class_response","1","test","39","Pumice","Pumice","14","true","8","8","",""
"","","","","","","","","","","","html-keyboard-response","282","2.0.0","922896","66e8648522905b612ef32882","1","52","null","","","","","","","","","<p style='font-size: 30px;'><strong>Okay</strong></p>","null","neutral_feedback","1","test","39","","","","","","","",""
"","","","","","","","","","","","html-button-response","283","2.0.0","924955","66e8648522905b612ef32882","1","52","2058","","","","","","","","","<img src= ""rock_img/I_Andesite_16.jpg"" style=""width:8cm; height:6.010000000000001cm;""><p>What type of rock is this?</p>","6","class_response","1","test","40","Peridotite","Andesite","16","false","7","1","",""
"","","","","","","","","","","","html-keyboard-response","284","2.0.0","925458","66e8648522905b612ef32882","1","52","null","","","","","","","","","<p style='font-size: 30px;'><strong>Okay</strong></p>","null","neutral_feedback","1","test","40","","","","","","","",""
"","","","","","","","","","","","html-button-response","285","2.0.0","926906","66e8648522905b612ef32882","1","52","1447","","","","","","","","","<img src= ""rock_img/I_Pegmatite_08.jpg"" style=""width:8cm; height:7.68cm;""><p>What type of rock is this?</p>","2","class_response","1","test","41","Diorite","Pegmatite","08","false","3","6","",""
"","","","","","","","","","","","html-keyboard-response","286","2.0.0","927407","66e8648522905b612ef32882","1","52","null","","","","","","","","","<p style='font-size: 30px;'><strong>Okay</strong></p>","null","neutral_feedback","1","test","41","","","","","","","",""
"","","","","","","","","","","","html-button-response","287","2.0.0","931882","66e8648522905b612ef32882","1","52","4473","","","","","","","","","<img src= ""rock_img/I_Gabbro_03.jpg"" style=""width:8cm; height:8.52cm;""><p>What type of rock is this?</p>","0","class_response","1","test","42","Andesite","Gabbro","03","false","1","4","",""
"","","","","","","","","","","","html-keyboard-response","288","2.0.0","932383","66e8648522905b612ef32882","1","52","null","","","","","","","","","<p style='font-size: 30px;'><strong>Okay</strong></p>","null","neutral_feedback","1","test","42","","","","","","","",""
"","","","","","","","","","","","html-button-response","289","2.0.0","935002","66e8648522905b612ef32882","1","52","2618","","","","","","","","","<img src= ""rock_img/I_Pegmatite_10.jpg"" style=""width:8cm; height:4.16cm;""><p>What type of rock is this?</p>","6","class_response","1","test","43","Peridotite","Pegmatite","10","false","7","6","",""
"","","","","","","","","","","","html-keyboard-response","290","2.0.0","935504","66e8648522905b612ef32882","1","52","null","","","","","","","","","<p style='font-size: 30px;'><strong>Okay</strong></p>","null","neutral_feedback","1","test","43","","","","","","","",""
"","","","","","","","","","","","html-button-response","291","2.0.0","937802","66e8648522905b612ef32882","1","52","2296","","","","","","","","","<img src= ""rock_img/I_Gabbro_10.jpg"" style=""width:8cm; height:5.680000000000001cm;""><p>What type of rock is this?</p>","1","class_response","1","test","44","Basalt","Gabbro","10","false","2","4","",""
"","","","","","","","","","","","html-keyboard-response","292","2.0.0","938304","66e8648522905b612ef32882","1","52","null","","","","","","","","","<p style='font-size: 30px;'><strong>Okay</strong></p>","null","neutral_feedback","1","test","44","","","","","","","",""
"","","","","","","","","","","","html-button-response","293","2.0.0","942146","66e8648522905b612ef32882","1","52","3841","","","","","","","","","<img src= ""rock_img/I_Diorite_07.jpg"" style=""width:8cm; height:5.239999999999999cm;""><p>What type of rock is this?</p>","5","class_response","1","test","45","Pegmatite","Diorite","07","false","6","3","",""
"","","","","","","","","","","","html-keyboard-response","294","2.0.0","942648","66e8648522905b612ef32882","1","52","null","","","","","","","","","<p style='font-size: 30px;'><strong>Okay</strong></p>","null","neutral_feedback","1","test","45","","","","","","","",""
"","","","","","","","","","","","html-button-response","295","2.0.0","946850","66e8648522905b612ef32882","1","52","4201","","","","","","","","","<img src= ""rock_img/I_Diorite_13.jpg"" style=""width:8cm; height:6.29cm;""><p>What type of rock is this?</p>","6","class_response","1","test","46","Peridotite","Diorite","13","false","7","3","",""
"","","","","","","","","","","","html-keyboard-response","296","2.0.0","947363","66e8648522905b612ef32882","1","52","null","","","","","","","","","<p style='font-size: 30px;'><strong>Okay</strong></p>","null","neutral_feedback","1","test","46","","","","","","","",""
"","","","","","","","","","","","html-button-response","297","2.0.0","949594","66e8648522905b612ef32882","1","52","2229","","","","","","","","","<img src= ""rock_img/I_Diorite_09.jpg"" style=""width:8cm; height:5.27cm;""><p>What type of rock is this?</p>","2","class_response","1","test","47","Diorite","Diorite","09","true","3","3","",""
"","","","","","","","","","","","html-keyboard-response","298","2.0.0","950096","66e8648522905b612ef32882","1","52","null","","","","","","","","","<p style='font-size: 30px;'><strong>Okay</strong></p>","null","neutral_feedback","1","test","47","","","","","","","",""
"","","","","","","","","","","","html-button-response","299","2.0.0","953826","66e8648522905b612ef32882","1","52","3729","","","","","","","","","<img src= ""rock_img/I_Peridotite_05.jpg"" style=""width:8cm; height:7.1499999999999995cm;""><p>What type of rock is this?</p>","3","class_response","1","test","48","Gabbro","Peridotite","05","false","4","7","",""
"","","","","","","","","","","","html-keyboard-response","300","2.0.0","954328","66e8648522905b612ef32882","1","52","null","","","","","","","","","<p style='font-size: 30px;'><strong>Okay</strong></p>","null","neutral_feedback","1","test","48","","","","","","","",""
"","","","","","","","","","","","html-button-response","301","2.0.0","977067","66e8648522905b612ef32882","1","52","","","","","","","","","","","","cycle_feedback","","","","","","","","","","12742.900000095367","9992.299999952316"
"","","","","","","","","","","","html-button-response","303","2.0.0","990410","66e8648522905b612ef32882","1","52","13341","","","","","","","","","","0","start_train","","","","","","","","","","",""
"","","","","","","","","","","","html-button-response","304","2.0.0","994459","66e8648522905b612ef32882","1","52","4047","","","","","","","","","<img src= ""rock_img/I_Obsidian_06.jpg"" style=""width:8cm; height:6.8cm;""><p>What type of rock is this?</p>","4","class_response","2","train","1","Obsidian","Obsidian","06","true","5","5","",""
