"width","height","webaudio","browser","browser_version","mobile","os","fullscreen","vsync_rate","webcam","microphone","trial_type","trial_index","plugin_version","time_elapsed","subjID","condition","stimID","rt","url","success","value","timeout","failed_images","failed_audio","failed_video","view_history","stimulus","response","trialType","cycle","phase","trial","resp","cat","token","corr","resp_num","cat_num"
"1536","826","true","chrome","131.0.0","false","Windows 10","true","60.36","true","true","browser-check","0","2.0.0","1006","6365b39d456c37b91bf98540","3","15","","","","","","","","","","","","","","","","","","","","",""
"","","","","","","","","","","","external-html","1","2.0.0","7634","6365b39d456c37b91bf98540","3","15","6523","consent_form.html","","","","","","","","","","","","","","","","","","",""
"","","","","","","","","","","","fullscreen","2","2.0.0","10538","6365b39d456c37b91bf98540","3","15","1894","","true","","","","","","","","","","","","","","","","","",""
"","","","","","","","","","","","call-function","3","2.0.0","10541","6365b39d456c37b91bf98540","3","15","","","","{}","","","","","","","","","","","","","","","","",""
"","","","","","","","","","","","preload","4","2.0.0","16308","6365b39d456c37b91bf98540","3","15","","","true","","false","[]","[]","[]","","","","","","","","","","","","",""
"","","","","","","","","","","","instructions","5","2.0.0","45050","6365b39d456c37b91bf98540","3","15","28741","","","","","","","","[{""page_index"":0,""viewing_time"":3284},{""page_index"":1,""viewing_time"":18708},{""page_index"":2,""viewing_time"":6748}]","","","","","","","","","","","",""
"","","","","","","","","","","","html-button-response","6","2.0.0","47251","6365b39d456c37b91bf98540","3","15","2199","","","","","","","","","","0","start_test","","","","","","","","",""
"","","","","","","","","","","","html-button-response","7","2.0.0","58219","6365b39d456c37b91bf98540","3","15","10965","","","","","","","","","<img src= ""rock_img/I_Pegmatite_13.jpg"" style=""width:8cm; height:4.95cm;""><p>What type of rock is this?</p>","0","class_response","0","test","1","Andesite","Pegmatite","13","false","1","6"
"","","","","","","","","","","","html-keyboard-response","8","2.0.0","58721","6365b39d456c37b91bf98540","3","15","null","","","","","","","","","<p style='font-size: 30px;'><strong>Okay</strong></p>","null","neutral_feedback","0","test","1","","","","","",""
"","","","","","","","","","","","html-button-response","9","2.0.0","61337","6365b39d456c37b91bf98540","3","15","2616","","","","","","","","","<img src= ""rock_img/I_Pegmatite_06.jpg"" style=""width:8cm; height:5.17cm;""><p>What type of rock is this?</p>","1","class_response","0","test","2","Basalt","Pegmatite","06","false","2","6"
"","","","","","","","","","","","html-keyboard-response","10","2.0.0","61844","6365b39d456c37b91bf98540","3","15","null","","","","","","","","","<p style='font-size: 30px;'><strong>Okay</strong></p>","null","neutral_feedback","0","test","2","","","","","",""
"","","","","","","","","","","","html-button-response","11","2.0.0","66306","6365b39d456c37b91bf98540","3","15","4460","","","","","","","","","<img src= ""rock_img/I_Pumice_02.jpg"" style=""width:8cm; height:7.3999999999999995cm;""><p>What type of rock is this?</p>","7","class_response","0","test","3","Pumice","Pumice","02","true","8","8"
"","","","","","","","","","","","html-keyboard-response","12","2.0.0","66816","6365b39d456c37b91bf98540","3","15","null","","","","","","","","","<p style='font-size: 30px;'><strong>Okay</strong></p>","null","neutral_feedback","0","test","3","","","","","",""
"","","","","","","","","","","","html-button-response","13","2.0.0","71606","6365b39d456c37b91bf98540","3","15","4786","","","","","","","","","<img src= ""rock_img/I_Pumice_09.jpg"" style=""width:8cm; height:6.44cm;""><p>What type of rock is this?</p>","5","class_response","0","test","4","Pegmatite","Pumice","09","false","6","8"
"","","","","","","","","","","","html-keyboard-response","14","2.0.0","72107","6365b39d456c37b91bf98540","3","15","null","","","","","","","","","<p style='font-size: 30px;'><strong>Okay</strong></p>","null","neutral_feedback","0","test","4","","","","","",""
"","","","","","","","","","","","html-button-response","15","2.0.0","74522","6365b39d456c37b91bf98540","3","15","2412","","","","","","","","","<img src= ""rock_img/I_Basalt_11.jpg"" style=""width:8cm; height:5.359999999999999cm;""><p>What type of rock is this?</p>","2","class_response","0","test","5","Diorite","Basalt","11","false","3","2"
"","","","","","","","","","","","html-keyboard-response","16","2.0.0","75033","6365b39d456c37b91bf98540","3","15","null","","","","","","","","","<p style='font-size: 30px;'><strong>Okay</strong></p>","null","neutral_feedback","0","test","5","","","","","",""
"","","","","","","","","","","","html-button-response","17","2.0.0","77458","6365b39d456c37b91bf98540","3","15","2422","","","","","","","","","<img src= ""rock_img/I_Obsidian_11.jpg"" style=""width:8cm; height:6.05cm;""><p>What type of rock is this?</p>","4","class_response","0","test","6","Obsidian","Obsidian","11","true","5","5"
"","","","","","","","","","","","html-keyboard-response","18","2.0.0","77971","6365b39d456c37b91bf98540","3","15","null","","","","","","","","","<p style='font-size: 30px;'><strong>Okay</strong></p>","null","neutral_feedback","0","test","6","","","","","",""
"","","","","","","","","","","","html-button-response","19","2.0.0","80554","6365b39d456c37b91bf98540","3","15","2581","","","","","","","","","<img src= ""rock_img/I_Pumice_06.jpg"" style=""width:8cm; height:6.9399999999999995cm;""><p>What type of rock is this?</p>","3","class_response","0","test","7","Gabbro","Pumice","06","false","4","8"
"","","","","","","","","","","","html-keyboard-response","20","2.0.0","81059","6365b39d456c37b91bf98540","3","15","null","","","","","","","","","<p style='font-size: 30px;'><strong>Okay</strong></p>","null","neutral_feedback","0","test","7","","","","","",""
"","","","","","","","","","","","html-button-response","21","2.0.0","85838","6365b39d456c37b91bf98540","3","15","4777","","","","","","","","","<img src= ""rock_img/I_Pegmatite_15.jpg"" style=""width:8cm; height:6cm;""><p>What type of rock is this?</p>","6","class_response","0","test","8","Peridotite","Pegmatite","15","false","7","6"
"","","","","","","","","","","","html-keyboard-response","22","2.0.0","86343","6365b39d456c37b91bf98540","3","15","null","","","","","","","","","<p style='font-size: 30px;'><strong>Okay</strong></p>","null","neutral_feedback","0","test","8","","","","","",""
"","","","","","","","","","","","html-button-response","23","2.0.0","89186","6365b39d456c37b91bf98540","3","15","2841","","","","","","","","","<img src= ""rock_img/I_Gabbro_12.jpg"" style=""width:8cm; height:7.800000000000001cm;""><p>What type of rock is this?</p>","1","class_response","0","test","9","Basalt","Gabbro","12","false","2","4"
"","","","","","","","","","","","html-keyboard-response","24","2.0.0","89692","6365b39d456c37b91bf98540","3","15","null","","","","","","","","","<p style='font-size: 30px;'><strong>Okay</strong></p>","null","neutral_feedback","0","test","9","","","","","",""
"","","","","","","","","","","","html-button-response","25","2.0.0","95490","6365b39d456c37b91bf98540","3","15","5796","","","","","","","","","<img src= ""rock_img/I_Pegmatite_11.jpg"" style=""width:8cm; height:8.14cm;""><p>What type of rock is this?</p>","0","class_response","0","test","10","Andesite","Pegmatite","11","false","1","6"
"","","","","","","","","","","","html-keyboard-response","26","2.0.0","96004","6365b39d456c37b91bf98540","3","15","null","","","","","","","","","<p style='font-size: 30px;'><strong>Okay</strong></p>","null","neutral_feedback","0","test","10","","","","","",""
"","","","","","","","","","","","html-button-response","27","2.0.0","101441","6365b39d456c37b91bf98540","3","15","5435","","","","","","","","","<img src= ""rock_img/I_Andesite_05.jpg"" style=""width:8cm; height:4.12cm;""><p>What type of rock is this?</p>","6","class_response","0","test","11","Peridotite","Andesite","05","false","7","1"
"","","","","","","","","","","","html-keyboard-response","28","2.0.0","101955","6365b39d456c37b91bf98540","3","15","null","","","","","","","","","<p style='font-size: 30px;'><strong>Okay</strong></p>","null","neutral_feedback","0","test","11","","","","","",""
"","","","","","","","","","","","html-button-response","29","2.0.0","105890","6365b39d456c37b91bf98540","3","15","3933","","","","","","","","","<img src= ""rock_img/I_Gabbro_09.jpg"" style=""width:8cm; height:7.279999999999999cm;""><p>What type of rock is this?</p>","4","class_response","0","test","12","Obsidian","Gabbro","09","false","5","4"
"","","","","","","","","","","","html-keyboard-response","30","2.0.0","106396","6365b39d456c37b91bf98540","3","15","null","","","","","","","","","<p style='font-size: 30px;'><strong>Okay</strong></p>","null","neutral_feedback","0","test","12","","","","","",""
"","","","","","","","","","","","html-button-response","31","2.0.0","109242","6365b39d456c37b91bf98540","3","15","2843","","","","","","","","","<img src= ""rock_img/I_Basalt_04.jpg"" style=""width:8cm; height:7.53cm;""><p>What type of rock is this?</p>","4","class_response","0","test","13","Obsidian","Basalt","04","false","5","2"
"","","","","","","","","","","","html-keyboard-response","32","2.0.0","109745","6365b39d456c37b91bf98540","3","15","null","","","","","","","","","<p style='font-size: 30px;'><strong>Okay</strong></p>","null","neutral_feedback","0","test","13","","","","","",""
"","","","","","","","","","","","html-button-response","33","2.0.0","112162","6365b39d456c37b91bf98540","3","15","2416","","","","","","","","","<img src= ""rock_img/I_Obsidian_14.jpg"" style=""width:8cm; height:7.64cm;""><p>What type of rock is this?</p>","4","class_response","0","test","14","Obsidian","Obsidian","14","true","5","5"
"","","","","","","","","","","","html-keyboard-response","34","2.0.0","112671","6365b39d456c37b91bf98540","3","15","null","","","","","","","","","<p style='font-size: 30px;'><strong>Okay</strong></p>","null","neutral_feedback","0","test","14","","","","","",""
"","","","","","","","","","","","html-button-response","35","2.0.0","115523","6365b39d456c37b91bf98540","3","15","2849","","","","","","","","","<img src= ""rock_img/I_Diorite_12.jpg"" style=""width:8cm; height:4.88cm;""><p>What type of rock is this?</p>","7","class_response","0","test","15","Pumice","Diorite","12","false","8","3"
"","","","","","","","","","","","html-keyboard-response","36","2.0.0","116024","6365b39d456c37b91bf98540","3","15","null","","","","","","","","","<p style='font-size: 30px;'><strong>Okay</strong></p>","null","neutral_feedback","0","test","15","","","","","",""
"","","","","","","","","","","","html-button-response","37","2.0.0","117610","6365b39d456c37b91bf98540","3","15","1585","","","","","","","","","<img src= ""rock_img/I_Peridotite_14.jpg"" style=""width:8cm; height:5.3cm;""><p>What type of rock is this?</p>","6","class_response","0","test","16","Peridotite","Peridotite","14","true","7","7"
"","","","","","","","","","","","html-keyboard-response","38","2.0.0","118116","6365b39d456c37b91bf98540","3","15","null","","","","","","","","","<p style='font-size: 30px;'><strong>Okay</strong></p>","null","neutral_feedback","0","test","16","","","","","",""
"","","","","","","","","","","","html-button-response","39","2.0.0","121370","6365b39d456c37b91bf98540","3","15","3252","","","","","","","","","<img src= ""rock_img/I_Peridotite_15.jpg"" style=""width:8cm; height:6cm;""><p>What type of rock is this?</p>","2","class_response","0","test","17","Diorite","Peridotite","15","false","3","7"
"","","","","","","","","","","","html-keyboard-response","40","2.0.0","121887","6365b39d456c37b91bf98540","3","15","null","","","","","","","","","<p style='font-size: 30px;'><strong>Okay</strong></p>","null","neutral_feedback","0","test","17","","","","","",""
"","","","","","","","","","","","html-button-response","41","2.0.0","124730","6365b39d456c37b91bf98540","3","15","2842","","","","","","","","","<img src= ""rock_img/I_Diorite_11.jpg"" style=""width:8cm; height:7.11cm;""><p>What type of rock is this?</p>","0","class_response","0","test","18","Andesite","Diorite","11","false","1","3"
"","","","","","","","","","","","html-keyboard-response","42","2.0.0","125234","6365b39d456c37b91bf98540","3","15","null","","","","","","","","","<p style='font-size: 30px;'><strong>Okay</strong></p>","null","neutral_feedback","0","test","18","","","","","",""
"","","","","","","","","","","","html-button-response","43","2.0.0","129106","6365b39d456c37b91bf98540","3","15","3870","","","","","","","","","<img src= ""rock_img/I_Diorite_08.jpg"" style=""width:8cm; height:6.37cm;""><p>What type of rock is this?</p>","6","class_response","0","test","19","Peridotite","Diorite","08","false","7","3"
"","","","","","","","","","","","html-keyboard-response","44","2.0.0","129607","6365b39d456c37b91bf98540","3","15","null","","","","","","","","","<p style='font-size: 30px;'><strong>Okay</strong></p>","null","neutral_feedback","0","test","19","","","","","",""
"","","","","","","","","","","","html-button-response","45","2.0.0","131427","6365b39d456c37b91bf98540","3","15","1818","","","","","","","","","<img src= ""rock_img/I_Basalt_05.jpg"" style=""width:8cm; height:8.18cm;""><p>What type of rock is this?</p>","4","class_response","0","test","20","Obsidian","Basalt","05","false","5","2"
"","","","","","","","","","","","html-keyboard-response","46","2.0.0","131939","6365b39d456c37b91bf98540","3","15","null","","","","","","","","","<p style='font-size: 30px;'><strong>Okay</strong></p>","null","neutral_feedback","0","test","20","","","","","",""
"","","","","","","","","","","","html-button-response","47","2.0.0","134537","6365b39d456c37b91bf98540","3","15","2597","","","","","","","","","<img src= ""rock_img/I_Peridotite_16.jpg"" style=""width:8cm; height:6.989999999999999cm;""><p>What type of rock is this?</p>","2","class_response","0","test","21","Diorite","Peridotite","16","false","3","7"
"","","","","","","","","","","","html-keyboard-response","48","2.0.0","135046","6365b39d456c37b91bf98540","3","15","null","","","","","","","","","<p style='font-size: 30px;'><strong>Okay</strong></p>","null","neutral_feedback","0","test","21","","","","","",""
"","","","","","","","","","","","html-button-response","49","2.0.0","137796","6365b39d456c37b91bf98540","3","15","2746","","","","","","","","","<img src= ""rock_img/I_Gabbro_05.jpg"" style=""width:8cm; height:6cm;""><p>What type of rock is this?</p>","0","class_response","0","test","22","Andesite","Gabbro","05","false","1","4"
"","","","","","","","","","","","html-keyboard-response","50","2.0.0","138300","6365b39d456c37b91bf98540","3","15","null","","","","","","","","","<p style='font-size: 30px;'><strong>Okay</strong></p>","null","neutral_feedback","0","test","22","","","","","",""
"","","","","","","","","","","","html-button-response","51","2.0.0","141082","6365b39d456c37b91bf98540","3","15","2781","","","","","","","","","<img src= ""rock_img/I_Basalt_14.jpg"" style=""width:8cm; height:5.82cm;""><p>What type of rock is this?</p>","7","class_response","0","test","23","Pumice","Basalt","14","false","8","2"
"","","","","","","","","","","","html-keyboard-response","52","2.0.0","141585","6365b39d456c37b91bf98540","3","15","null","","","","","","","","","<p style='font-size: 30px;'><strong>Okay</strong></p>","null","neutral_feedback","0","test","23","","","","","",""
"","","","","","","","","","","","html-button-response","53","2.0.0","144674","6365b39d456c37b91bf98540","3","15","3087","","","","","","","","","<img src= ""rock_img/I_Pegmatite_12.jpg"" style=""width:8cm; height:5.7cm;""><p>What type of rock is this?</p>","2","class_response","0","test","24","Diorite","Pegmatite","12","false","3","6"
"","","","","","","","","","","","html-keyboard-response","54","2.0.0","145176","6365b39d456c37b91bf98540","3","15","null","","","","","","","","","<p style='font-size: 30px;'><strong>Okay</strong></p>","null","neutral_feedback","0","test","24","","","","","",""
"","","","","","","","","","","","html-button-response","55","2.0.0","146349","6365b39d456c37b91bf98540","3","15","1172","","","","","","","","","<img src= ""rock_img/I_Obsidian_08.jpg"" style=""width:8cm; height:7.39cm;""><p>What type of rock is this?</p>","5","class_response","0","test","25","Pegmatite","Obsidian","08","false","6","5"
"","","","","","","","","","","","html-keyboard-response","56","2.0.0","146852","6365b39d456c37b91bf98540","3","15","null","","","","","","","","","<p style='font-size: 30px;'><strong>Okay</strong></p>","null","neutral_feedback","0","test","25","","","","","",""
"","","","","","","","","","","","html-button-response","57","2.0.0","153010","6365b39d456c37b91bf98540","3","15","6157","","","","","","","","","<img src= ""rock_img/I_Obsidian_09.jpg"" style=""width:8cm; height:5cm;""><p>What type of rock is this?</p>","4","class_response","0","test","26","Obsidian","Obsidian","09","true","5","5"
"","","","","","","","","","","","html-keyboard-response","58","2.0.0","153515","6365b39d456c37b91bf98540","3","15","null","","","","","","","","","<p style='font-size: 30px;'><strong>Okay</strong></p>","null","neutral_feedback","0","test","26","","","","","",""
"","","","","","","","","","","","html-button-response","59","2.0.0","167002","6365b39d456c37b91bf98540","3","15","13485","","","","","","","","","<img src= ""rock_img/I_Obsidian_06.jpg"" style=""width:8cm; height:6.8cm;""><p>What type of rock is this?</p>","2","class_response","0","test","27","Diorite","Obsidian","06","false","3","5"
"","","","","","","","","","","","html-keyboard-response","60","2.0.0","167517","6365b39d456c37b91bf98540","3","15","null","","","","","","","","","<p style='font-size: 30px;'><strong>Okay</strong></p>","null","neutral_feedback","0","test","27","","","","","",""
"","","","","","","","","","","","html-button-response","61","2.0.0","169362","6365b39d456c37b91bf98540","3","15","1843","","","","","","","","","<img src= ""rock_img/I_Andesite_09.jpg"" style=""width:8cm; height:6cm;""><p>What type of rock is this?</p>","1","class_response","0","test","28","Basalt","Andesite","09","false","2","1"
"","","","","","","","","","","","html-keyboard-response","62","2.0.0","169870","6365b39d456c37b91bf98540","3","15","null","","","","","","","","","<p style='font-size: 30px;'><strong>Okay</strong></p>","null","neutral_feedback","0","test","28","","","","","",""
"","","","","","","","","","","","html-button-response","63","2.0.0","175018","6365b39d456c37b91bf98540","3","15","5146","","","","","","","","","<img src= ""rock_img/I_Gabbro_08.jpg"" style=""width:8cm; height:5.15cm;""><p>What type of rock is this?</p>","3","class_response","0","test","29","Gabbro","Gabbro","08","true","4","4"
"","","","","","","","","","","","html-keyboard-response","64","2.0.0","175530","6365b39d456c37b91bf98540","3","15","null","","","","","","","","","<p style='font-size: 30px;'><strong>Okay</strong></p>","null","neutral_feedback","0","test","29","","","","","",""
