"width","height","webaudio","browser","browser_version","mobile","os","fullscreen","vsync_rate","webcam","microphone","trial_type","trial_index","plugin_version","time_elapsed","subjID","condition","stimID","rt","url","success","value","timeout","failed_images","failed_audio","failed_video","view_history","stimulus","response","trialType","cycle","phase","trial","resp","cat","token","corr","resp_num","cat_num","rt_ref","rt_paired","ref_cat_num","paired_cat_num","ref_cat","paired_cat"
"1467","723","true","firefox","132.0.0","false","Windows 10","true","98.04","true","true","browser-check","0","2.0.0","623","570d22b35e5156000efd8bd5","4","49","","","","","","","","","","","","","","","","","","","","","","","","","","",""
"","","","","","","","","","","","external-html","1","2.0.0","6878","570d22b35e5156000efd8bd5","4","49","6155","consent_form.html","","","","","","","","","","","","","","","","","","","","","","","","",""
"","","","","","","","","","","","fullscreen","2","2.0.0","11169","570d22b35e5156000efd8bd5","4","49","3275","","true","","","","","","","","","","","","","","","","","","","","","","","",""
"","","","","","","","","","","","call-function","3","2.0.0","11171","570d22b35e5156000efd8bd5","4","49","","","","{}","","","","","","","","","","","","","","","","","","","","","","",""
"","","","","","","","","","","","preload","4","2.0.0","13601","570d22b35e5156000efd8bd5","4","49","","","true","","false","[]","[]","[]","","","","","","","","","","","","","","","","","","",""
"","","","","","","","","","","","instructions","5","2.0.0","72718","570d22b35e5156000efd8bd5","4","49","59116","","","","","","","","[{""page_index"":0,""viewing_time"":11870},{""page_index"":1,""viewing_time"":27267},{""page_index"":2,""viewing_time"":19979}]","","","","","","","","","","","","","","","","","",""
"","","","","","","","","","","","html-button-response","6","2.0.0","74978","570d22b35e5156000efd8bd5","4","49","2255","","","","","","","","","","0","start_test","","","","","","","","","","","","","","",""
"","","","","","","","","","","","html-button-response","7","2.0.0","90889","570d22b35e5156000efd8bd5","4","49","15908","","","","","","","","","<img src= ""rock_img/I_Pumice_04.jpg"" style=""width:8cm; height:6.819999999999999cm;""><p>What type of rock is this?</p>","6","class_response","0","test","1","Peridotite","Pumice","04","false","7","8","","","","","",""
"","","","","","","","","","","","html-keyboard-response","8","2.0.0","91402","570d22b35e5156000efd8bd5","4","49","null","","","","","","","","","<p style='font-size: 30px;'><strong>Okay</strong></p>","null","neutral_feedback","0","test","1","","","","","","","","","","","",""
"","","","","","","","","","","","html-button-response","9","2.0.0","95734","570d22b35e5156000efd8bd5","4","49","4330","","","","","","","","","<img src= ""rock_img/I_Peridotite_04.jpg"" style=""width:8cm; height:6.680000000000001cm;""><p>What type of rock is this?</p>","5","class_response","0","test","2","Pegmatite","Peridotite","04","false","6","7","","","","","",""
"","","","","","","","","","","","html-keyboard-response","10","2.0.0","96240","570d22b35e5156000efd8bd5","4","49","null","","","","","","","","","<p style='font-size: 30px;'><strong>Okay</strong></p>","null","neutral_feedback","0","test","2","","","","","","","","","","","",""
"","","","","","","","","","","","html-button-response","11","2.0.0","98270","570d22b35e5156000efd8bd5","4","49","2028","","","","","","","","","<img src= ""rock_img/I_Peridotite_02.jpg"" style=""width:8cm; height:5.859999999999999cm;""><p>What type of rock is this?</p>","1","class_response","0","test","3","Basalt","Peridotite","02","false","2","7","","","","","",""
"","","","","","","","","","","","html-keyboard-response","12","2.0.0","98774","570d22b35e5156000efd8bd5","4","49","null","","","","","","","","","<p style='font-size: 30px;'><strong>Okay</strong></p>","null","neutral_feedback","0","test","3","","","","","","","","","","","",""
"","","","","","","","","","","","html-button-response","13","2.0.0","100341","570d22b35e5156000efd8bd5","4","49","1566","","","","","","","","","<img src= ""rock_img/I_Diorite_09.jpg"" style=""width:8cm; height:5.27cm;""><p>What type of rock is this?</p>","0","class_response","0","test","4","Andesite","Diorite","09","false","1","3","","","","","",""
"","","","","","","","","","","","html-keyboard-response","14","2.0.0","100850","570d22b35e5156000efd8bd5","4","49","null","","","","","","","","","<p style='font-size: 30px;'><strong>Okay</strong></p>","null","neutral_feedback","0","test","4","","","","","","","","","","","",""
"","","","","","","","","","","","html-button-response","15","2.0.0","102223","570d22b35e5156000efd8bd5","4","49","1371","","","","","","","","","<img src= ""rock_img/I_Basalt_16.jpg"" style=""width:8cm; height:7.659999999999999cm;""><p>What type of rock is this?</p>","2","class_response","0","test","5","Diorite","Basalt","16","false","3","2","","","","","",""
"","","","","","","","","","","","html-keyboard-response","16","2.0.0","102738","570d22b35e5156000efd8bd5","4","49","null","","","","","","","","","<p style='font-size: 30px;'><strong>Okay</strong></p>","null","neutral_feedback","0","test","5","","","","","","","","","","","",""
"","","","","","","","","","","","html-button-response","17","2.0.0","104079","570d22b35e5156000efd8bd5","4","49","1339","","","","","","","","","<img src= ""rock_img/I_Obsidian_16.jpg"" style=""width:8cm; height:9.3cm;""><p>What type of rock is this?</p>","3","class_response","0","test","6","Gabbro","Obsidian","16","false","4","5","","","","","",""
"","","","","","","","","","","","html-keyboard-response","18","2.0.0","104587","570d22b35e5156000efd8bd5","4","49","null","","","","","","","","","<p style='font-size: 30px;'><strong>Okay</strong></p>","null","neutral_feedback","0","test","6","","","","","","","","","","","",""
"","","","","","","","","","","","html-button-response","19","2.0.0","105826","570d22b35e5156000efd8bd5","4","49","1238","","","","","","","","","<img src= ""rock_img/I_Pegmatite_07.jpg"" style=""width:8cm; height:6.7cm;""><p>What type of rock is this?</p>","4","class_response","0","test","7","Obsidian","Pegmatite","07","false","5","6","","","","","",""
"","","","","","","","","","","","html-keyboard-response","20","2.0.0","106334","570d22b35e5156000efd8bd5","4","49","null","","","","","","","","","<p style='font-size: 30px;'><strong>Okay</strong></p>","null","neutral_feedback","0","test","7","","","","","","","","","","","",""
"","","","","","","","","","","","html-button-response","21","2.0.0","108173","570d22b35e5156000efd8bd5","4","49","1838","","","","","","","","","<img src= ""rock_img/I_Obsidian_14.jpg"" style=""width:8cm; height:7.64cm;""><p>What type of rock is this?</p>","7","class_response","0","test","8","Pumice","Obsidian","14","false","8","5","","","","","",""
"","","","","","","","","","","","html-keyboard-response","22","2.0.0","108683","570d22b35e5156000efd8bd5","4","49","null","","","","","","","","","<p style='font-size: 30px;'><strong>Okay</strong></p>","null","neutral_feedback","0","test","8","","","","","","","","","","","",""
"","","","","","","","","","","","html-button-response","23","2.0.0","110955","570d22b35e5156000efd8bd5","4","49","2270","","","","","","","","","<img src= ""rock_img/I_Pumice_13.jpg"" style=""width:8cm; height:8.200000000000001cm;""><p>What type of rock is this?</p>","2","class_response","0","test","9","Diorite","Pumice","13","false","3","8","","","","","",""
"","","","","","","","","","","","html-keyboard-response","24","2.0.0","111463","570d22b35e5156000efd8bd5","4","49","null","","","","","","","","","<p style='font-size: 30px;'><strong>Okay</strong></p>","null","neutral_feedback","0","test","9","","","","","","","","","","","",""
"","","","","","","","","","","","html-button-response","25","2.0.0","112719","570d22b35e5156000efd8bd5","4","49","1254","","","","","","","","","<img src= ""rock_img/I_Obsidian_02.jpg"" style=""width:8cm; height:7.51cm;""><p>What type of rock is this?</p>","3","class_response","0","test","10","Gabbro","Obsidian","02","false","4","5","","","","","",""
"","","","","","","","","","","","html-keyboard-response","26","2.0.0","113234","570d22b35e5156000efd8bd5","4","49","null","","","","","","","","","<p style='font-size: 30px;'><strong>Okay</strong></p>","null","neutral_feedback","0","test","10","","","","","","","","","","","",""
"","","","","","","","","","","","html-button-response","27","2.0.0","114434","570d22b35e5156000efd8bd5","4","49","1198","","","","","","","","","<img src= ""rock_img/I_Pumice_15.jpg"" style=""width:8cm; height:7.86cm;""><p>What type of rock is this?</p>","2","class_response","0","test","11","Diorite","Pumice","15","false","3","8","","","","","",""
"","","","","","","","","","","","html-keyboard-response","28","2.0.0","114943","570d22b35e5156000efd8bd5","4","49","null","","","","","","","","","<p style='font-size: 30px;'><strong>Okay</strong></p>","null","neutral_feedback","0","test","11","","","","","","","","","","","",""
"","","","","","","","","","","","html-button-response","29","2.0.0","116567","570d22b35e5156000efd8bd5","4","49","1622","","","","","","","","","<img src= ""rock_img/I_Andesite_02.jpg"" style=""width:8cm; height:8.5cm;""><p>What type of rock is this?</p>","1","class_response","0","test","12","Basalt","Andesite","02","false","2","1","","","","","",""
"","","","","","","","","","","","html-keyboard-response","30","2.0.0","117081","570d22b35e5156000efd8bd5","4","49","null","","","","","","","","","<p style='font-size: 30px;'><strong>Okay</strong></p>","null","neutral_feedback","0","test","12","","","","","","","","","","","",""
"","","","","","","","","","","","html-button-response","31","2.0.0","120716","570d22b35e5156000efd8bd5","4","49","3634","","","","","","","","","<img src= ""rock_img/I_Gabbro_01.jpg"" style=""width:8cm; height:5.21cm;""><p>What type of rock is this?</p>","5","class_response","0","test","13","Pegmatite","Gabbro","01","false","6","4","","","","","",""
"","","","","","","","","","","","html-keyboard-response","32","2.0.0","121217","570d22b35e5156000efd8bd5","4","49","null","","","","","","","","","<p style='font-size: 30px;'><strong>Okay</strong></p>","null","neutral_feedback","0","test","13","","","","","","","","","","","",""
"","","","","","","","","","","","html-button-response","33","2.0.0","122835","570d22b35e5156000efd8bd5","4","49","1616","","","","","","","","","<img src= ""rock_img/I_Gabbro_13.jpg"" style=""width:8cm; height:5.08cm;""><p>What type of rock is this?</p>","4","class_response","0","test","14","Obsidian","Gabbro","13","false","5","4","","","","","",""
"","","","","","","","","","","","html-keyboard-response","34","2.0.0","123349","570d22b35e5156000efd8bd5","4","49","null","","","","","","","","","<p style='font-size: 30px;'><strong>Okay</strong></p>","null","neutral_feedback","0","test","14","","","","","","","","","","","",""
"","","","","","","","","","","","html-button-response","35","2.0.0","125015","570d22b35e5156000efd8bd5","4","49","1664","","","","","","","","","<img src= ""rock_img/I_Diorite_14.jpg"" style=""width:8cm; height:5.71cm;""><p>What type of rock is this?</p>","6","class_response","0","test","15","Peridotite","Diorite","14","false","7","3","","","","","",""
"","","","","","","","","","","","html-keyboard-response","36","2.0.0","125527","570d22b35e5156000efd8bd5","4","49","null","","","","","","","","","<p style='font-size: 30px;'><strong>Okay</strong></p>","null","neutral_feedback","0","test","15","","","","","","","","","","","",""
"","","","","","","","","","","","html-button-response","37","2.0.0","126351","570d22b35e5156000efd8bd5","4","49","822","","","","","","","","","<img src= ""rock_img/I_Andesite_07.jpg"" style=""width:8cm; height:5.93cm;""><p>What type of rock is this?</p>","6","class_response","0","test","16","Peridotite","Andesite","07","false","7","1","","","","","",""
"","","","","","","","","","","","html-keyboard-response","38","2.0.0","126853","570d22b35e5156000efd8bd5","4","49","null","","","","","","","","","<p style='font-size: 30px;'><strong>Okay</strong></p>","null","neutral_feedback","0","test","16","","","","","","","","","","","",""
"","","","","","","","","","","","html-button-response","39","2.0.0","128374","570d22b35e5156000efd8bd5","4","49","1519","","","","","","","","","<img src= ""rock_img/I_Basalt_08.jpg"" style=""width:8cm; height:10.44cm;""><p>What type of rock is this?</p>","3","class_response","0","test","17","Gabbro","Basalt","08","false","4","2","","","","","",""
"","","","","","","","","","","","html-keyboard-response","40","2.0.0","128881","570d22b35e5156000efd8bd5","4","49","null","","","","","","","","","<p style='font-size: 30px;'><strong>Okay</strong></p>","null","neutral_feedback","0","test","17","","","","","","","","","","","",""
"","","","","","","","","","","","html-button-response","41","2.0.0","130635","570d22b35e5156000efd8bd5","4","49","1754","","","","","","","","","<img src= ""rock_img/I_Pumice_09.jpg"" style=""width:8cm; height:6.44cm;""><p>What type of rock is this?</p>","0","class_response","0","test","18","Andesite","Pumice","09","false","1","8","","","","","",""
"","","","","","","","","","","","html-keyboard-response","42","2.0.0","131143","570d22b35e5156000efd8bd5","4","49","null","","","","","","","","","<p style='font-size: 30px;'><strong>Okay</strong></p>","null","neutral_feedback","0","test","18","","","","","","","","","","","",""
"","","","","","","","","","","","html-button-response","43","2.0.0","133970","570d22b35e5156000efd8bd5","4","49","2825","","","","","","","","","<img src= ""rock_img/I_Peridotite_10.jpg"" style=""width:8cm; height:5.390000000000001cm;""><p>What type of rock is this?</p>","5","class_response","0","test","19","Pegmatite","Peridotite","10","false","6","7","","","","","",""
"","","","","","","","","","","","html-keyboard-response","44","2.0.0","134478","570d22b35e5156000efd8bd5","4","49","null","","","","","","","","","<p style='font-size: 30px;'><strong>Okay</strong></p>","null","neutral_feedback","0","test","19","","","","","","","","","","","",""
"","","","","","","","","","","","html-button-response","45","2.0.0","136247","570d22b35e5156000efd8bd5","4","49","1768","","","","","","","","","<img src= ""rock_img/I_Diorite_07.jpg"" style=""width:8cm; height:5.239999999999999cm;""><p>What type of rock is this?</p>","6","class_response","0","test","20","Peridotite","Diorite","07","false","7","3","","","","","",""
"","","","","","","","","","","","html-keyboard-response","46","2.0.0","136758","570d22b35e5156000efd8bd5","4","49","null","","","","","","","","","<p style='font-size: 30px;'><strong>Okay</strong></p>","null","neutral_feedback","0","test","20","","","","","","","","","","","",""
"","","","","","","","","","","","html-button-response","47","2.0.0","138081","570d22b35e5156000efd8bd5","4","49","1320","","","","","","","","","<img src= ""rock_img/I_Pumice_14.jpg"" style=""width:8cm; height:6.39cm;""><p>What type of rock is this?</p>","2","class_response","0","test","21","Diorite","Pumice","14","false","3","8","","","","","",""
"","","","","","","","","","","","html-keyboard-response","48","2.0.0","138583","570d22b35e5156000efd8bd5","4","49","null","","","","","","","","","<p style='font-size: 30px;'><strong>Okay</strong></p>","null","neutral_feedback","0","test","21","","","","","","","","","","","",""
"","","","","","","","","","","","html-button-response","49","2.0.0","140339","570d22b35e5156000efd8bd5","4","49","1754","","","","","","","","","<img src= ""rock_img/I_Pegmatite_09.jpg"" style=""width:8cm; height:4.03cm;""><p>What type of rock is this?</p>","3","class_response","0","test","22","Gabbro","Pegmatite","09","false","4","6","","","","","",""
"","","","","","","","","","","","html-keyboard-response","50","2.0.0","140849","570d22b35e5156000efd8bd5","4","49","null","","","","","","","","","<p style='font-size: 30px;'><strong>Okay</strong></p>","null","neutral_feedback","0","test","22","","","","","","","","","","","",""
"","","","","","","","","","","","html-button-response","51","2.0.0","145796","570d22b35e5156000efd8bd5","4","49","4945","","","","","","","","","<img src= ""rock_img/I_Andesite_06.jpg"" style=""width:8cm; height:6.840000000000001cm;""><p>What type of rock is this?</p>","6","class_response","0","test","23","Peridotite","Andesite","06","false","7","1","","","","","",""
"","","","","","","","","","","","html-keyboard-response","52","2.0.0","146306","570d22b35e5156000efd8bd5","4","49","null","","","","","","","","","<p style='font-size: 30px;'><strong>Okay</strong></p>","null","neutral_feedback","0","test","23","","","","","","","","","","","",""
"","","","","","","","","","","","html-button-response","53","2.0.0","147675","570d22b35e5156000efd8bd5","4","49","1367","","","","","","","","","<img src= ""rock_img/I_Basalt_05.jpg"" style=""width:8cm; height:8.18cm;""><p>What type of rock is this?</p>","3","class_response","0","test","24","Gabbro","Basalt","05","false","4","2","","","","","",""
"","","","","","","","","","","","html-keyboard-response","54","2.0.0","148186","570d22b35e5156000efd8bd5","4","49","null","","","","","","","","","<p style='font-size: 30px;'><strong>Okay</strong></p>","null","neutral_feedback","0","test","24","","","","","","","","","","","",""
"","","","","","","","","","","","html-button-response","55","2.0.0","154254","570d22b35e5156000efd8bd5","4","49","6064","","","","","","","","","<img src= ""rock_img/I_Diorite_02.jpg"" style=""width:8cm; height:6.27cm;""><p>What type of rock is this?</p>","6","class_response","0","test","25","Peridotite","Diorite","02","false","7","3","","","","","",""
"","","","","","","","","","","","html-keyboard-response","56","2.0.0","154759","570d22b35e5156000efd8bd5","4","49","null","","","","","","","","","<p style='font-size: 30px;'><strong>Okay</strong></p>","null","neutral_feedback","0","test","25","","","","","","","","","","","",""
"","","","","","","","","","","","html-button-response","57","2.0.0","156606","570d22b35e5156000efd8bd5","4","49","1845","","","","","","","","","<img src= ""rock_img/I_Andesite_09.jpg"" style=""width:8cm; height:6cm;""><p>What type of rock is this?</p>","5","class_response","0","test","26","Pegmatite","Andesite","09","false","6","1","","","","","",""
"","","","","","","","","","","","html-keyboard-response","58","2.0.0","157124","570d22b35e5156000efd8bd5","4","49","null","","","","","","","","","<p style='font-size: 30px;'><strong>Okay</strong></p>","null","neutral_feedback","0","test","26","","","","","","","","","","","",""
"","","","","","","","","","","","html-button-response","59","2.0.0","158401","570d22b35e5156000efd8bd5","4","49","1275","","","","","","","","","<img src= ""rock_img/I_Peridotite_14.jpg"" style=""width:8cm; height:5.3cm;""><p>What type of rock is this?</p>","5","class_response","0","test","27","Pegmatite","Peridotite","14","false","6","7","","","","","",""
"","","","","","","","","","","","html-keyboard-response","60","2.0.0","158913","570d22b35e5156000efd8bd5","4","49","null","","","","","","","","","<p style='font-size: 30px;'><strong>Okay</strong></p>","null","neutral_feedback","0","test","27","","","","","","","","","","","",""
"","","","","","","","","","","","html-button-response","61","2.0.0","160195","570d22b35e5156000efd8bd5","4","49","1281","","","","","","","","","<img src= ""rock_img/I_Basalt_04.jpg"" style=""width:8cm; height:7.53cm;""><p>What type of rock is this?</p>","3","class_response","0","test","28","Gabbro","Basalt","04","false","4","2","","","","","",""
"","","","","","","","","","","","html-keyboard-response","62","2.0.0","160711","570d22b35e5156000efd8bd5","4","49","null","","","","","","","","","<p style='font-size: 30px;'><strong>Okay</strong></p>","null","neutral_feedback","0","test","28","","","","","","","","","","","",""
"","","","","","","","","","","","html-button-response","63","2.0.0","162976","570d22b35e5156000efd8bd5","4","49","2263","","","","","","","","","<img src= ""rock_img/I_Diorite_15.jpg"" style=""width:8cm; height:5.54cm;""><p>What type of rock is this?</p>","5","class_response","0","test","29","Pegmatite","Diorite","15","false","6","3","","","","","",""
"","","","","","","","","","","","html-keyboard-response","64","2.0.0","163492","570d22b35e5156000efd8bd5","4","49","null","","","","","","","","","<p style='font-size: 30px;'><strong>Okay</strong></p>","null","neutral_feedback","0","test","29","","","","","","","","","","","",""
"","","","","","","","","","","","html-button-response","65","2.0.0","164991","570d22b35e5156000efd8bd5","4","49","1498","","","","","","","","","<img src= ""rock_img/I_Pegmatite_15.jpg"" style=""width:8cm; height:6cm;""><p>What type of rock is this?</p>","3","class_response","0","test","30","Gabbro","Pegmatite","15","false","4","6","","","","","",""
"","","","","","","","","","","","html-keyboard-response","66","2.0.0","165502","570d22b35e5156000efd8bd5","4","49","null","","","","","","","","","<p style='font-size: 30px;'><strong>Okay</strong></p>","null","neutral_feedback","0","test","30","","","","","","","","","","","",""
"","","","","","","","","","","","html-button-response","67","2.0.0","169457","570d22b35e5156000efd8bd5","4","49","3952","","","","","","","","","<img src= ""rock_img/I_Pegmatite_12.jpg"" style=""width:8cm; height:5.7cm;""><p>What type of rock is this?</p>","6","class_response","0","test","31","Peridotite","Pegmatite","12","false","7","6","","","","","",""
"","","","","","","","","","","","html-keyboard-response","68","2.0.0","169958","570d22b35e5156000efd8bd5","4","49","null","","","","","","","","","<p style='font-size: 30px;'><strong>Okay</strong></p>","null","neutral_feedback","0","test","31","","","","","","","","","","","",""
"","","","","","","","","","","","html-button-response","69","2.0.0","173061","570d22b35e5156000efd8bd5","4","49","3101","","","","","","","","","<img src= ""rock_img/I_Peridotite_12.jpg"" style=""width:8cm; height:4.54cm;""><p>What type of rock is this?</p>","5","class_response","0","test","32","Pegmatite","Peridotite","12","false","6","7","","","","","",""
"","","","","","","","","","","","html-keyboard-response","70","2.0.0","173572","570d22b35e5156000efd8bd5","4","49","null","","","","","","","","","<p style='font-size: 30px;'><strong>Okay</strong></p>","null","neutral_feedback","0","test","32","","","","","","","","","","","",""
"","","","","","","","","","","","html-button-response","71","2.0.0","174927","570d22b35e5156000efd8bd5","4","49","1354","","","","","","","","","<img src= ""rock_img/I_Basalt_09.jpg"" style=""width:8cm; height:6.2cm;""><p>What type of rock is this?</p>","3","class_response","0","test","33","Gabbro","Basalt","09","false","4","2","","","","","",""
"","","","","","","","","","","","html-keyboard-response","72","2.0.0","175438","570d22b35e5156000efd8bd5","4","49","null","","","","","","","","","<p style='font-size: 30px;'><strong>Okay</strong></p>","null","neutral_feedback","0","test","33","","","","","","","","","","","",""
"","","","","","","","","","","","html-button-response","73","2.0.0","177179","570d22b35e5156000efd8bd5","4","49","1738","","","","","","","","","<img src= ""rock_img/I_Peridotite_08.jpg"" style=""width:8cm; height:6.7cm;""><p>What type of rock is this?</p>","5","class_response","0","test","34","Pegmatite","Peridotite","08","false","6","7","","","","","",""
"","","","","","","","","","","","html-keyboard-response","74","2.0.0","177687","570d22b35e5156000efd8bd5","4","49","null","","","","","","","","","<p style='font-size: 30px;'><strong>Okay</strong></p>","null","neutral_feedback","0","test","34","","","","","","","","","","","",""
"","","","","","","","","","","","html-button-response","75","2.0.0","181858","570d22b35e5156000efd8bd5","4","49","4169","","","","","","","","","<img src= ""rock_img/I_Basalt_11.jpg"" style=""width:8cm; height:5.359999999999999cm;""><p>What type of rock is this?</p>","6","class_response","0","test","35","Peridotite","Basalt","11","false","7","2","","","","","",""
"","","","","","","","","","","","html-keyboard-response","76","2.0.0","182367","570d22b35e5156000efd8bd5","4","49","null","","","","","","","","","<p style='font-size: 30px;'><strong>Okay</strong></p>","null","neutral_feedback","0","test","35","","","","","","","","","","","",""
"","","","","","","","","","","","html-button-response","77","2.0.0","185471","570d22b35e5156000efd8bd5","4","49","3103","","","","","","","","","<img src= ""rock_img/I_Diorite_08.jpg"" style=""width:8cm; height:6.37cm;""><p>What type of rock is this?</p>","6","class_response","0","test","36","Peridotite","Diorite","08","false","7","3","","","","","",""
"","","","","","","","","","","","html-keyboard-response","78","2.0.0","185978","570d22b35e5156000efd8bd5","4","49","null","","","","","","","","","<p style='font-size: 30px;'><strong>Okay</strong></p>","null","neutral_feedback","0","test","36","","","","","","","","","","","",""
"","","","","","","","","","","","html-button-response","79","2.0.0","187423","570d22b35e5156000efd8bd5","4","49","1445","","","","","","","","","<img src= ""rock_img/I_Andesite_16.jpg"" style=""width:8cm; height:6.010000000000001cm;""><p>What type of rock is this?</p>","6","class_response","0","test","37","Peridotite","Andesite","16","false","7","1","","","","","",""
"","","","","","","","","","","","html-keyboard-response","80","2.0.0","187927","570d22b35e5156000efd8bd5","4","49","null","","","","","","","","","<p style='font-size: 30px;'><strong>Okay</strong></p>","null","neutral_feedback","0","test","37","","","","","","","","","","","",""
"","","","","","","","","","","","html-button-response","81","2.0.0","191540","570d22b35e5156000efd8bd5","4","49","3612","","","","","","","","","<img src= ""rock_img/I_Gabbro_03.jpg"" style=""width:8cm; height:8.52cm;""><p>What type of rock is this?</p>","6","class_response","0","test","38","Peridotite","Gabbro","03","false","7","4","","","","","",""
"","","","","","","","","","","","html-keyboard-response","82","2.0.0","192054","570d22b35e5156000efd8bd5","4","49","null","","","","","","","","","<p style='font-size: 30px;'><strong>Okay</strong></p>","null","neutral_feedback","0","test","38","","","","","","","","","","","",""
"","","","","","","","","","","","html-button-response","83","2.0.0","193279","570d22b35e5156000efd8bd5","4","49","1224","","","","","","","","","<img src= ""rock_img/I_Obsidian_12.jpg"" style=""width:8cm; height:6.53cm;""><p>What type of rock is this?</p>","3","class_response","0","test","39","Gabbro","Obsidian","12","false","4","5","","","","","",""
"","","","","","","","","","","","html-keyboard-response","84","2.0.0","193786","570d22b35e5156000efd8bd5","4","49","null","","","","","","","","","<p style='font-size: 30px;'><strong>Okay</strong></p>","null","neutral_feedback","0","test","39","","","","","","","","","","","",""
"","","","","","","","","","","","html-button-response","85","2.0.0","197428","570d22b35e5156000efd8bd5","4","49","3640","","","","","","","","","<img src= ""rock_img/I_Gabbro_05.jpg"" style=""width:8cm; height:6cm;""><p>What type of rock is this?</p>","5","class_response","0","test","40","Pegmatite","Gabbro","05","false","6","4","","","","","",""
"","","","","","","","","","","","html-keyboard-response","86","2.0.0","197934","570d22b35e5156000efd8bd5","4","49","null","","","","","","","","","<p style='font-size: 30px;'><strong>Okay</strong></p>","null","neutral_feedback","0","test","40","","","","","","","","","","","",""
"","","","","","","","","","","","html-button-response","87","2.0.0","200694","570d22b35e5156000efd8bd5","4","49","2758","","","","","","","","","<img src= ""rock_img/I_Andesite_01.jpg"" style=""width:8cm; height:5.87cm;""><p>What type of rock is this?</p>","3","class_response","0","test","41","Gabbro","Andesite","01","false","4","1","","","","","",""
"","","","","","","","","","","","html-keyboard-response","88","2.0.0","201207","570d22b35e5156000efd8bd5","4","49","null","","","","","","","","","<p style='font-size: 30px;'><strong>Okay</strong></p>","null","neutral_feedback","0","test","41","","","","","","","","","","","",""
"","","","","","","","","","","","html-button-response","89","2.0.0","202194","570d22b35e5156000efd8bd5","4","49","985","","","","","","","","","<img src= ""rock_img/I_Obsidian_07.jpg"" style=""width:8cm; height:4.76cm;""><p>What type of rock is this?</p>","3","class_response","0","test","42","Gabbro","Obsidian","07","false","4","5","","","","","",""
"","","","","","","","","","","","html-keyboard-response","90","2.0.0","202706","570d22b35e5156000efd8bd5","4","49","null","","","","","","","","","<p style='font-size: 30px;'><strong>Okay</strong></p>","null","neutral_feedback","0","test","42","","","","","","","","","","","",""
"","","","","","","","","","","","html-button-response","91","2.0.0","204582","570d22b35e5156000efd8bd5","4","49","1874","","","","","","","","","<img src= ""rock_img/I_Gabbro_14.jpg"" style=""width:8cm; height:8.48cm;""><p>What type of rock is this?</p>","5","class_response","0","test","43","Pegmatite","Gabbro","14","false","6","4","","","","","",""
"","","","","","","","","","","","html-keyboard-response","92","2.0.0","205083","570d22b35e5156000efd8bd5","4","49","null","","","","","","","","","<p style='font-size: 30px;'><strong>Okay</strong></p>","null","neutral_feedback","0","test","43","","","","","","","","","","","",""
"","","","","","","","","","","","html-button-response","93","2.0.0","206305","570d22b35e5156000efd8bd5","4","49","1220","","","","","","","","","<img src= ""rock_img/I_Obsidian_04.jpg"" style=""width:8cm; height:6.930000000000001cm;""><p>What type of rock is this?</p>","3","class_response","0","test","44","Gabbro","Obsidian","04","false","4","5","","","","","",""
"","","","","","","","","","","","html-keyboard-response","94","2.0.0","206815","570d22b35e5156000efd8bd5","4","49","null","","","","","","","","","<p style='font-size: 30px;'><strong>Okay</strong></p>","null","neutral_feedback","0","test","44","","","","","","","","","","","",""
"","","","","","","","","","","","html-button-response","95","2.0.0","208817","570d22b35e5156000efd8bd5","4","49","2001","","","","","","","","","<img src= ""rock_img/I_Pegmatite_05.jpg"" style=""width:8cm; height:7.300000000000001cm;""><p>What type of rock is this?</p>","6","class_response","0","test","45","Peridotite","Pegmatite","05","false","7","6","","","","","",""
"","","","","","","","","","","","html-keyboard-response","96","2.0.0","209325","570d22b35e5156000efd8bd5","4","49","null","","","","","","","","","<p style='font-size: 30px;'><strong>Okay</strong></p>","null","neutral_feedback","0","test","45","","","","","","","","","","","",""
"","","","","","","","","","","","html-button-response","97","2.0.0","211214","570d22b35e5156000efd8bd5","4","49","1886","","","","","","","","","<img src= ""rock_img/I_Pumice_16.jpg"" style=""width:8cm; height:6.79cm;""><p>What type of rock is this?</p>","5","class_response","0","test","46","Pegmatite","Pumice","16","false","6","8","","","","","",""
"","","","","","","","","","","","html-keyboard-response","98","2.0.0","211717","570d22b35e5156000efd8bd5","4","49","null","","","","","","","","","<p style='font-size: 30px;'><strong>Okay</strong></p>","null","neutral_feedback","0","test","46","","","","","","","","","","","",""
"","","","","","","","","","","","html-button-response","99","2.0.0","213757","570d22b35e5156000efd8bd5","4","49","2039","","","","","","","","","<img src= ""rock_img/I_Gabbro_09.jpg"" style=""width:8cm; height:7.279999999999999cm;""><p>What type of rock is this?</p>","3","class_response","0","test","47","Gabbro","Gabbro","09","true","4","4","","","","","",""
"","","","","","","","","","","","html-keyboard-response","100","2.0.0","214267","570d22b35e5156000efd8bd5","4","49","null","","","","","","","","","<p style='font-size: 30px;'><strong>Okay</strong></p>","null","neutral_feedback","0","test","47","","","","","","","","","","","",""
"","","","","","","","","","","","html-button-response","101","2.0.0","217661","570d22b35e5156000efd8bd5","4","49","3393","","","","","","","","","<img src= ""rock_img/I_Pegmatite_11.jpg"" style=""width:8cm; height:8.14cm;""><p>What type of rock is this?</p>","4","class_response","0","test","48","Obsidian","Pegmatite","11","false","5","6","","","","","",""
"","","","","","","","","","","","html-keyboard-response","102","2.0.0","218166","570d22b35e5156000efd8bd5","4","49","null","","","","","","","","","<p style='font-size: 30px;'><strong>Okay</strong></p>","null","neutral_feedback","0","test","48","","","","","","","","","","","",""
"","","","","","","","","","","","instructions","103","2.0.0","259896","570d22b35e5156000efd8bd5","4","49","41708","","","","","","","","[{""page_index"":0,""viewing_time"":31748},{""page_index"":1,""viewing_time"":9960}]","","","","","","","","","","","","","","","","","",""
"","","","","","","","","","","","html-button-response","104","2.0.0","261468","570d22b35e5156000efd8bd5","4","49","1571","","","","","","","","","","0","start_train","","","","","","","","","","","","","","",""
"","","","","","","","","","","","html-button-response","106","2.0.0","263381","570d22b35e5156000efd8bd5","4","49","1911","","","","","","","","","<img src= ""rock_img/I_Pegmatite_10.jpg"" style=""width:8cm; height:4.16cm;""><p>What type of rock is this?</p>","3","class_response","1","train","1","Gabbro","Pegmatite","10","false","4","6","","","","","",""
"","","","","","","","","","","","html-button-response","107","2.0.0","265673","570d22b35e5156000efd8bd5","4","49","2290","","","","","","","","","<img src= rock_img/I_Pegmatite_10.jpg style=""width:8cm; height:4.16cm;""><p style='font-size: 30px; color: red;'><strong>Incorrect!</strong></p><p style='font-size: 30px;'><strong>This rock is pegmatite</strong></p>","0","corr_feedback","1","train","1","","","","","","","","","","","",""
"","","","","","","","","","","","html-button-response","108","2.0.0","270763","570d22b35e5156000efd8bd5","4","49","5087","","","","","","","","","<img src= ""rock_img/I_Gabbro_11.jpg"" style=""width:8cm; height:6.2cm;""><p>What type of rock is this?</p>","3","class_response","1","train","2","Gabbro","Gabbro","11","true","4","4","","","","","",""
"","","","","","","","","","","","html-button-response","109","2.0.0","272138","570d22b35e5156000efd8bd5","4","49","1374","","","","","","","","","<img src= rock_img/I_Gabbro_11.jpg style=""width:8cm; height:6.2cm;""><p style='font-size: 30px; color: green;'><strong>Correct!</strong></p><p style='font-size: 30px;'><strong>This rock is gabbro</strong></p>","0","corr_feedback","1","train","2","","","","","","","","","","","",""
"","","","","","","","","","","","html-button-response","110","2.0.0","274273","570d22b35e5156000efd8bd5","4","49","2133","","","","","","","","","<img src= ""rock_img/I_Andesite_11.jpg"" style=""width:8cm; height:4.92cm;""><p>What type of rock is this?</p>","6","class_response","1","train","3","Peridotite","Andesite","11","false","7","1","","","","","",""
"","","","","","","","","","","","html-button-response","111","2.0.0","276977","570d22b35e5156000efd8bd5","4","49","2701","","","","","","","","","<img src= rock_img/I_Andesite_11.jpg style=""width:8cm; height:4.92cm;""><p style='font-size: 30px; color: red;'><strong>Incorrect!</strong></p><p style='font-size: 30px;'><strong>This rock is andesite</strong></p>","0","corr_feedback","1","train","3","","","","","","","","","","","",""
"","","","","","","","","","","","html-button-response","112","2.0.0","282604","570d22b35e5156000efd8bd5","4","49","5623","","","","","","","","","<img src= ""rock_img/I_Basalt_01.jpg"" style=""width:8cm; height:7.880000000000001cm;""><p>What type of rock is this?</p>","5","class_response","1","train","4","Pegmatite","Basalt","01","false","6","2","","","","","",""
"","","","","","","","","","","","html-button-response","113","2.0.0","284002","570d22b35e5156000efd8bd5","4","49","1394","","","","","","","","","<img src= rock_img/I_Basalt_01.jpg style=""width:8cm; height:7.880000000000001cm;""><p style='font-size: 30px; color: red;'><strong>Incorrect!</strong></p><p style='font-size: 30px;'><strong>This rock is basalt</strong></p>","0","corr_feedback","1","train","4","","","","","","","","","","","",""
"","","","","","","","","","","","html-button-response","114","2.0.0","295106","570d22b35e5156000efd8bd5","4","49","11102","","","","","","","","","<img src= ""rock_img/I_Peridotite_07.jpg"" style=""width:8cm; height:4.83cm;""><p>What type of rock is this?</p>","1","class_response","1","train","5","Basalt","Peridotite","07","false","2","7","","","","","",""
"","","","","","","","","","","","html-button-response","115","2.0.0","296228","570d22b35e5156000efd8bd5","4","49","1120","","","","","","","","","<img src= rock_img/I_Peridotite_07.jpg style=""width:8cm; height:4.83cm;""><p style='font-size: 30px; color: red;'><strong>Incorrect!</strong></p><p style='font-size: 30px;'><strong>This rock is peridotite</strong></p>","0","corr_feedback","1","train","5","","","","","","","","","","","",""
"","","","","","","","","","","","html-button-response","116","2.0.0","298710","570d22b35e5156000efd8bd5","4","49","2480","","","","","","","","","<img src= ""rock_img/I_Pegmatite_16.jpg"" style=""width:8cm; height:5.8cm;""><p>What type of rock is this?</p>","4","class_response","1","train","6","Obsidian","Pegmatite","16","false","5","6","","","","","",""
"","","","","","","","","","","","html-button-response","117","2.0.0","300062","570d22b35e5156000efd8bd5","4","49","1350","","","","","","","","","<img src= rock_img/I_Pegmatite_16.jpg style=""width:8cm; height:5.8cm;""><p style='font-size: 30px; color: red;'><strong>Incorrect!</strong></p><p style='font-size: 30px;'><strong>This rock is pegmatite</strong></p>","0","corr_feedback","1","train","6","","","","","","","","","","","",""
"","","","","","","","","","","","html-button-response","118","2.0.0","301942","570d22b35e5156000efd8bd5","4","49","1879","","","","","","","","","<img src= ""rock_img/I_Obsidian_11.jpg"" style=""width:8cm; height:6.05cm;""><p>What type of rock is this?</p>","3","class_response","1","train","7","Gabbro","Obsidian","11","false","4","5","","","","","",""
"","","","","","","","","","","","html-button-response","119","2.0.0","304464","570d22b35e5156000efd8bd5","4","49","2520","","","","","","","","","<img src= rock_img/I_Obsidian_11.jpg style=""width:8cm; height:6.05cm;""><p style='font-size: 30px; color: red;'><strong>Incorrect!</strong></p><p style='font-size: 30px;'><strong>This rock is obsidian</strong></p>","0","corr_feedback","1","train","7","","","","","","","","","","","",""
"","","","","","","","","","","","html-button-response","120","2.0.0","309775","570d22b35e5156000efd8bd5","4","49","5309","","","","","","","","","<img src= ""rock_img/I_Diorite_11.jpg"" style=""width:8cm; height:7.11cm;""><p>What type of rock is this?</p>","7","class_response","1","train","8","Pumice","Diorite","11","false","8","3","","","","","",""
"","","","","","","","","","","","html-button-response","121","2.0.0","310921","570d22b35e5156000efd8bd5","4","49","1143","","","","","","","","","<img src= rock_img/I_Diorite_11.jpg style=""width:8cm; height:7.11cm;""><p style='font-size: 30px; color: red;'><strong>Incorrect!</strong></p><p style='font-size: 30px;'><strong>This rock is diorite</strong></p>","0","corr_feedback","1","train","8","","","","","","","","","","","",""
"","","","","","","","","","","","html-button-response","122","2.0.0","312478","570d22b35e5156000efd8bd5","4","49","1556","","","","","","","","","<img src= ""rock_img/I_Pumice_06.jpg"" style=""width:8cm; height:6.9399999999999995cm;""><p>What type of rock is this?</p>","2","class_response","1","train","9","Diorite","Pumice","06","false","3","8","","","","","",""
"","","","","","","","","","","","html-button-response","123","2.0.0","314051","570d22b35e5156000efd8bd5","4","49","1570","","","","","","","","","<img src= rock_img/I_Pumice_06.jpg style=""width:8cm; height:6.9399999999999995cm;""><p style='font-size: 30px; color: red;'><strong>Incorrect!</strong></p><p style='font-size: 30px;'><strong>This rock is pumice</strong></p>","0","corr_feedback","1","train","9","","","","","","","","","","","",""
"","","","","","","","","","","","html-button-response","124","2.0.0","316058","570d22b35e5156000efd8bd5","4","49","2004","","","","","","","","","<img src= ""rock_img/I_Obsidian_10.jpg"" style=""width:8cm; height:6.260000000000001cm;""><p>What type of rock is this?</p>","4","class_response","1","train","10","Obsidian","Obsidian","10","true","5","5","","","","","",""
"","","","","","","","","","","","html-button-response","125","2.0.0","317283","570d22b35e5156000efd8bd5","4","49","1223","","","","","","","","","<img src= rock_img/I_Obsidian_10.jpg style=""width:8cm; height:6.260000000000001cm;""><p style='font-size: 30px; color: green;'><strong>Correct!</strong></p><p style='font-size: 30px;'><strong>This rock is obsidian</strong></p>","0","corr_feedback","1","train","10","","","","","","","","","","","",""
"","","","","","","","","","","","html-button-response","126","2.0.0","319235","570d22b35e5156000efd8bd5","4","49","1949","","","","","","","","","<img src= ""rock_img/I_Basalt_06.jpg"" style=""width:8cm; height:7.06cm;""><p>What type of rock is this?</p>","4","class_response","1","train","11","Obsidian","Basalt","06","false","5","2","","","","","",""
"","","","","","","","","","","","html-button-response","127","2.0.0","320564","570d22b35e5156000efd8bd5","4","49","1327","","","","","","","","","<img src= rock_img/I_Basalt_06.jpg style=""width:8cm; height:7.06cm;""><p style='font-size: 30px; color: red;'><strong>Incorrect!</strong></p><p style='font-size: 30px;'><strong>This rock is basalt</strong></p>","0","corr_feedback","1","train","11","","","","","","","","","","","",""
"","","","","","","","","","","","html-button-response","128","2.0.0","324034","570d22b35e5156000efd8bd5","4","49","3468","","","","","","","","","<img src= ""rock_img/I_Peridotite_05.jpg"" style=""width:8cm; height:7.1499999999999995cm;""><p>What type of rock is this?</p>","2","class_response","1","train","12","Diorite","Peridotite","05","false","3","7","","","","","",""
"","","","","","","","","","","","html-button-response","129","2.0.0","325005","570d22b35e5156000efd8bd5","4","49","970","","","","","","","","","<img src= rock_img/I_Peridotite_05.jpg style=""width:8cm; height:7.1499999999999995cm;""><p style='font-size: 30px; color: red;'><strong>Incorrect!</strong></p><p style='font-size: 30px;'><strong>This rock is peridotite</strong></p>","0","corr_feedback","1","train","12","","","","","","","","","","","",""
"","","","","","","","","","","","instructions","130","2.0.0","356702","570d22b35e5156000efd8bd5","4","49","31694","","","","","","","","[{""page_index"":0,""viewing_time"":2844},{""page_index"":1,""viewing_time"":12072},{""page_index"":2,""viewing_time"":7303},{""page_index"":3,""viewing_time"":9475}]","","","","","","","","","","","","","","","","","",""
"","","","","","","","","","","","html-button-response","131","2.0.0","358059","570d22b35e5156000efd8bd5","4","49","1357","","","","","","","","","","0","start_train","","","","","","","","","","","","","","",""
"","","","","","","","","","","","html-button-response","132","2.0.0","372160","570d22b35e5156000efd8bd5","4","49","","","","","","","","","","","","cat_selection","1","train","1","","","","","","","5879","8219","8","7","Pumice","Peridotite"
