"width","height","webaudio","browser","browser_version","mobile","os","fullscreen","vsync_rate","webcam","microphone","trial_type","trial_index","plugin_version","time_elapsed","subjID","condition","stimID","rt","url","success","value","timeout","failed_images","failed_audio","failed_video","view_history","stimulus","response","trialType","cycle","phase","trial","resp","cat","token","corr","resp_num","cat_num","ref_cat_num","paired_cat_num","time_obs","ref_cat","paired_cat","ref_prob_dist","paired_prob_dist","text_Gabbro","text_Peridotite","time_resp","text_Basalt","text_Diorite","text_Pegmatite","time_fb1","time_fb2"
"660","602","true","chrome","131.0.0","false","Windows 10","true","61.32","false","false","browser-check","0","2.0.0","1011","66eca7c326eed8fbf33a7b93","3","24","","","","","","","","","","","","","","","","","","","","","","","","","","","","","","","","","","","",""
"","","","","","","","","","","","external-html","1","2.0.0","10221","66eca7c326eed8fbf33a7b93","3","24","8533","consent_form.html","","","","","","","","","","","","","","","","","","","","","","","","","","","","","","","","","",""
"","","","","","","","","","","","fullscreen","2","2.0.0","13490","66eca7c326eed8fbf33a7b93","3","24","2255","","true","","","","","","","","","","","","","","","","","","","","","","","","","","","","","","","","",""
"","","","","","","","","","","","call-function","3","2.0.0","13496","66eca7c326eed8fbf33a7b93","3","24","","","","{}","","","","","","","","","","","","","","","","","","","","","","","","","","","","","","","",""
"","","","","","","","","","","","preload","4","2.0.0","348434","66eca7c326eed8fbf33a7b93","3","24","","","true","","false","[]","[]","[]","","","","","","","","","","","","","","","","","","","","","","","","","","","",""
"","","","","","","","","","","","instructions","5","2.0.0","981066","66eca7c326eed8fbf33a7b93","3","24","632630","","","","","","","","[{""page_index"":0,""viewing_time"":596479},{""page_index"":1,""viewing_time"":27311},{""page_index"":2,""viewing_time"":8837}]","","","","","","","","","","","","","","","","","","","","","","","","","","",""
"","","","","","","","","","","","html-button-response","6","2.0.0","983350","66eca7c326eed8fbf33a7b93","3","24","2278","","","","","","","","","","0","start_test","","","","","","","","","","","","","","","","","","","","","","","",""
"","","","","","","","","","","","html-button-response","7","2.0.0","985944","66eca7c326eed8fbf33a7b93","3","24","2588","","","","","","","","","<img src= ""rock_img/I_Diorite_02.jpg"" style=""width:8cm; height:6.27cm;""><p>What type of rock is this?</p>","1","class_response","0","test","1","Basalt","Diorite","02","false","2","3","","","","","","","","","","","","","","",""
"","","","","","","","","","","","html-keyboard-response","8","2.0.0","986454","66eca7c326eed8fbf33a7b93","3","24","null","","","","","","","","","<p style='font-size: 30px;'><strong>Okay</strong></p>","null","neutral_feedback","0","test","1","","","","","","","","","","","","","","","","","","","","",""
"","","","","","","","","","","","html-button-response","9","2.0.0","989748","66eca7c326eed8fbf33a7b93","3","24","3289","","","","","","","","","<img src= ""rock_img/I_Pumice_14.jpg"" style=""width:8cm; height:6.39cm;""><p>What type of rock is this?</p>","6","class_response","0","test","2","Peridotite","Pumice","14","false","7","8","","","","","","","","","","","","","","",""
"","","","","","","","","","","","html-keyboard-response","10","2.0.0","990259","66eca7c326eed8fbf33a7b93","3","24","null","","","","","","","","","<p style='font-size: 30px;'><strong>Okay</strong></p>","null","neutral_feedback","0","test","2","","","","","","","","","","","","","","","","","","","","",""
"","","","","","","","","","","","html-button-response","11","2.0.0","994578","66eca7c326eed8fbf33a7b93","3","24","4314","","","","","","","","","<img src= ""rock_img/I_Obsidian_06.jpg"" style=""width:8cm; height:6.8cm;""><p>What type of rock is this?</p>","0","class_response","0","test","3","Andesite","Obsidian","06","false","1","5","","","","","","","","","","","","","","",""
"","","","","","","","","","","","html-keyboard-response","12","2.0.0","995089","66eca7c326eed8fbf33a7b93","3","24","null","","","","","","","","","<p style='font-size: 30px;'><strong>Okay</strong></p>","null","neutral_feedback","0","test","3","","","","","","","","","","","","","","","","","","","","",""
"","","","","","","","","","","","html-button-response","13","2.0.0","997640","66eca7c326eed8fbf33a7b93","3","24","2546","","","","","","","","","<img src= ""rock_img/I_Diorite_11.jpg"" style=""width:8cm; height:7.11cm;""><p>What type of rock is this?</p>","7","class_response","0","test","4","Pumice","Diorite","11","false","8","3","","","","","","","","","","","","","","",""
"","","","","","","","","","","","html-keyboard-response","14","2.0.0","998154","66eca7c326eed8fbf33a7b93","3","24","null","","","","","","","","","<p style='font-size: 30px;'><strong>Okay</strong></p>","null","neutral_feedback","0","test","4","","","","","","","","","","","","","","","","","","","","",""
"","","","","","","","","","","","html-button-response","15","2.0.0","999520","66eca7c326eed8fbf33a7b93","3","24","1363","","","","","","","","","<img src= ""rock_img/I_Obsidian_07.jpg"" style=""width:8cm; height:4.76cm;""><p>What type of rock is this?</p>","2","class_response","0","test","5","Diorite","Obsidian","07","false","3","5","","","","","","","","","","","","","","",""
"","","","","","","","","","","","html-keyboard-response","16","2.0.0","1000024","66eca7c326eed8fbf33a7b93","3","24","null","","","","","","","","","<p style='font-size: 30px;'><strong>Okay</strong></p>","null","neutral_feedback","0","test","5","","","","","","","","","","","","","","","","","","","","",""
"","","","","","","","","","","","html-button-response","17","2.0.0","1001736","66eca7c326eed8fbf33a7b93","3","24","1708","","","","","","","","","<img src= ""rock_img/I_Pumice_08.jpg"" style=""width:8cm; height:6.67cm;""><p>What type of rock is this?</p>","5","class_response","0","test","6","Pegmatite","Pumice","08","false","6","8","","","","","","","","","","","","","","",""
"","","","","","","","","","","","html-keyboard-response","18","2.0.0","1002250","66eca7c326eed8fbf33a7b93","3","24","null","","","","","","","","","<p style='font-size: 30px;'><strong>Okay</strong></p>","null","neutral_feedback","0","test","6","","","","","","","","","","","","","","","","","","","","",""
"","","","","","","","","","","","html-button-response","19","2.0.0","1003968","66eca7c326eed8fbf33a7b93","3","24","1715","","","","","","","","","<img src= ""rock_img/I_Obsidian_14.jpg"" style=""width:8cm; height:7.64cm;""><p>What type of rock is this?</p>","4","class_response","0","test","7","Obsidian","Obsidian","14","true","5","5","","","","","","","","","","","","","","",""
"","","","","","","","","","","","html-keyboard-response","20","2.0.0","1004475","66eca7c326eed8fbf33a7b93","3","24","null","","","","","","","","","<p style='font-size: 30px;'><strong>Okay</strong></p>","null","neutral_feedback","0","test","7","","","","","","","","","","","","","","","","","","","","",""
"","","","","","","","","","","","html-button-response","21","2.0.0","1007165","66eca7c326eed8fbf33a7b93","3","24","2687","","","","","","","","","<img src= ""rock_img/I_Pumice_10.jpg"" style=""width:8cm; height:7.609999999999999cm;""><p>What type of rock is this?</p>","3","class_response","0","test","8","Gabbro","Pumice","10","false","4","8","","","","","","","","","","","","","","",""
"","","","","","","","","","","","html-keyboard-response","22","2.0.0","1007678","66eca7c326eed8fbf33a7b93","3","24","null","","","","","","","","","<p style='font-size: 30px;'><strong>Okay</strong></p>","null","neutral_feedback","0","test","8","","","","","","","","","","","","","","","","","","","","",""
"","","","","","","","","","","","html-button-response","23","2.0.0","1010365","66eca7c326eed8fbf33a7b93","3","24","2682","","","","","","","","","<img src= ""rock_img/I_Andesite_11.jpg"" style=""width:8cm; height:4.92cm;""><p>What type of rock is this?</p>","7","class_response","0","test","9","Pumice","Andesite","11","false","8","1","","","","","","","","","","","","","","",""
"","","","","","","","","","","","html-keyboard-response","24","2.0.0","1010878","66eca7c326eed8fbf33a7b93","3","24","null","","","","","","","","","<p style='font-size: 30px;'><strong>Okay</strong></p>","null","neutral_feedback","0","test","9","","","","","","","","","","","","","","","","","","","","",""
"","","","","","","","","","","","html-button-response","25","2.0.0","1012769","66eca7c326eed8fbf33a7b93","3","24","1887","","","","","","","","","<img src= ""rock_img/I_Diorite_16.jpg"" style=""width:8cm; height:6.74cm;""><p>What type of rock is this?</p>","2","class_response","0","test","10","Diorite","Diorite","16","true","3","3","","","","","","","","","","","","","","",""
"","","","","","","","","","","","html-keyboard-response","26","2.0.0","1013281","66eca7c326eed8fbf33a7b93","3","24","null","","","","","","","","","<p style='font-size: 30px;'><strong>Okay</strong></p>","null","neutral_feedback","0","test","10","","","","","","","","","","","","","","","","","","","","",""
"","","","","","","","","","","","html-button-response","27","2.0.0","1014895","66eca7c326eed8fbf33a7b93","3","24","1611","","","","","","","","","<img src= ""rock_img/I_Pegmatite_10.jpg"" style=""width:8cm; height:4.16cm;""><p>What type of rock is this?</p>","4","class_response","0","test","11","Obsidian","Pegmatite","10","false","5","6","","","","","","","","","","","","","","",""
"","","","","","","","","","","","html-keyboard-response","28","2.0.0","1015411","66eca7c326eed8fbf33a7b93","3","24","null","","","","","","","","","<p style='font-size: 30px;'><strong>Okay</strong></p>","null","neutral_feedback","0","test","11","","","","","","","","","","","","","","","","","","","","",""
"","","","","","","","","","","","html-button-response","29","2.0.0","1016637","66eca7c326eed8fbf33a7b93","3","24","1223","","","","","","","","","<img src= ""rock_img/I_Pumice_09.jpg"" style=""width:8cm; height:6.44cm;""><p>What type of rock is this?</p>","2","class_response","0","test","12","Diorite","Pumice","09","false","3","8","","","","","","","","","","","","","","",""
"","","","","","","","","","","","html-keyboard-response","30","2.0.0","1017148","66eca7c326eed8fbf33a7b93","3","24","null","","","","","","","","","<p style='font-size: 30px;'><strong>Okay</strong></p>","null","neutral_feedback","0","test","12","","","","","","","","","","","","","","","","","","","","",""
"","","","","","","","","","","","html-button-response","31","2.0.0","1019206","66eca7c326eed8fbf33a7b93","3","24","2055","","","","","","","","","<img src= ""rock_img/I_Pegmatite_03.jpg"" style=""width:8cm; height:5.239999999999999cm;""><p>What type of rock is this?</p>","1","class_response","0","test","13","Basalt","Pegmatite","03","false","2","6","","","","","","","","","","","","","","",""
"","","","","","","","","","","","html-keyboard-response","32","2.0.0","1019712","66eca7c326eed8fbf33a7b93","3","24","null","","","","","","","","","<p style='font-size: 30px;'><strong>Okay</strong></p>","null","neutral_feedback","0","test","13","","","","","","","","","","","","","","","","","","","","",""
"","","","","","","","","","","","html-button-response","33","2.0.0","1020751","66eca7c326eed8fbf33a7b93","3","24","1035","","","","","","","","","<img src= ""rock_img/I_Obsidian_04.jpg"" style=""width:8cm; height:6.930000000000001cm;""><p>What type of rock is this?</p>","7","class_response","0","test","14","Pumice","Obsidian","04","false","8","5","","","","","","","","","","","","","","",""
"","","","","","","","","","","","html-keyboard-response","34","2.0.0","1021267","66eca7c326eed8fbf33a7b93","3","24","null","","","","","","","","","<p style='font-size: 30px;'><strong>Okay</strong></p>","null","neutral_feedback","0","test","14","","","","","","","","","","","","","","","","","","","","",""
"","","","","","","","","","","","html-button-response","35","2.0.0","1022820","66eca7c326eed8fbf33a7b93","3","24","1551","","","","","","","","","<img src= ""rock_img/I_Andesite_07.jpg"" style=""width:8cm; height:5.93cm;""><p>What type of rock is this?</p>","0","class_response","0","test","15","Andesite","Andesite","07","true","1","1","","","","","","","","","","","","","","",""
"","","","","","","","","","","","html-keyboard-response","36","2.0.0","1023332","66eca7c326eed8fbf33a7b93","3","24","null","","","","","","","","","<p style='font-size: 30px;'><strong>Okay</strong></p>","null","neutral_feedback","0","test","15","","","","","","","","","","","","","","","","","","","","",""
"","","","","","","","","","","","html-button-response","37","2.0.0","1025018","66eca7c326eed8fbf33a7b93","3","24","1683","","","","","","","","","<img src= ""rock_img/I_Diorite_08.jpg"" style=""width:8cm; height:6.37cm;""><p>What type of rock is this?</p>","1","class_response","0","test","16","Basalt","Diorite","08","false","2","3","","","","","","","","","","","","","","",""
"","","","","","","","","","","","html-keyboard-response","38","2.0.0","1025521","66eca7c326eed8fbf33a7b93","3","24","null","","","","","","","","","<p style='font-size: 30px;'><strong>Okay</strong></p>","null","neutral_feedback","0","test","16","","","","","","","","","","","","","","","","","","","","",""
"","","","","","","","","","","","html-button-response","39","2.0.0","1026467","66eca7c326eed8fbf33a7b93","3","24","941","","","","","","","","","<img src= ""rock_img/I_Gabbro_11.jpg"" style=""width:8cm; height:6.2cm;""><p>What type of rock is this?</p>","6","class_response","0","test","17","Peridotite","Gabbro","11","false","7","4","","","","","","","","","","","","","","",""
"","","","","","","","","","","","html-keyboard-response","40","2.0.0","1026978","66eca7c326eed8fbf33a7b93","3","24","null","","","","","","","","","<p style='font-size: 30px;'><strong>Okay</strong></p>","null","neutral_feedback","0","test","17","","","","","","","","","","","","","","","","","","","","",""
"","","","","","","","","","","","html-button-response","41","2.0.0","1041003","66eca7c326eed8fbf33a7b93","3","24","14022","","","","","","","","","<img src= ""rock_img/I_Basalt_08.jpg"" style=""width:8cm; height:10.44cm;""><p>What type of rock is this?</p>","1","class_response","0","test","18","Basalt","Basalt","08","true","2","2","","","","","","","","","","","","","","",""
"","","","","","","","","","","","html-keyboard-response","42","2.0.0","1041520","66eca7c326eed8fbf33a7b93","3","24","null","","","","","","","","","<p style='font-size: 30px;'><strong>Okay</strong></p>","null","neutral_feedback","0","test","18","","","","","","","","","","","","","","","","","","","","",""
"","","","","","","","","","","","html-button-response","43","2.0.0","1043423","66eca7c326eed8fbf33a7b93","3","24","1900","","","","","","","","","<img src= ""rock_img/I_Diorite_10.jpg"" style=""width:8cm; height:5.949999999999999cm;""><p>What type of rock is this?</p>","7","class_response","0","test","19","Pumice","Diorite","10","false","8","3","","","","","","","","","","","","","","",""
"","","","","","","","","","","","html-keyboard-response","44","2.0.0","1043927","66eca7c326eed8fbf33a7b93","3","24","null","","","","","","","","","<p style='font-size: 30px;'><strong>Okay</strong></p>","null","neutral_feedback","0","test","19","","","","","","","","","","","","","","","","","","","","",""
"","","","","","","","","","","","html-button-response","45","2.0.0","1045084","66eca7c326eed8fbf33a7b93","3","24","1153","","","","","","","","","<img src= ""rock_img/I_Pegmatite_16.jpg"" style=""width:8cm; height:5.8cm;""><p>What type of rock is this?</p>","5","class_response","0","test","20","Pegmatite","Pegmatite","16","true","6","6","","","","","","","","","","","","","","",""
"","","","","","","","","","","","html-keyboard-response","46","2.0.0","1045606","66eca7c326eed8fbf33a7b93","3","24","null","","","","","","","","","<p style='font-size: 30px;'><strong>Okay</strong></p>","null","neutral_feedback","0","test","20","","","","","","","","","","","","","","","","","","","","",""
"","","","","","","","","","","","html-button-response","47","2.0.0","1047712","66eca7c326eed8fbf33a7b93","3","24","2101","","","","","","","","","<img src= ""rock_img/I_Peridotite_15.jpg"" style=""width:8cm; height:6cm;""><p>What type of rock is this?</p>","4","class_response","0","test","21","Obsidian","Peridotite","15","false","5","7","","","","","","","","","","","","","","",""
"","","","","","","","","","","","html-keyboard-response","48","2.0.0","1048227","66eca7c326eed8fbf33a7b93","3","24","null","","","","","","","","","<p style='font-size: 30px;'><strong>Okay</strong></p>","null","neutral_feedback","0","test","21","","","","","","","","","","","","","","","","","","","","",""
"","","","","","","","","","","","html-button-response","49","2.0.0","1049944","66eca7c326eed8fbf33a7b93","3","24","1713","","","","","","","","","<img src= ""rock_img/I_Pumice_16.jpg"" style=""width:8cm; height:6.79cm;""><p>What type of rock is this?</p>","3","class_response","0","test","22","Gabbro","Pumice","16","false","4","8","","","","","","","","","","","","","","",""
"","","","","","","","","","","","html-keyboard-response","50","2.0.0","1050452","66eca7c326eed8fbf33a7b93","3","24","null","","","","","","","","","<p style='font-size: 30px;'><strong>Okay</strong></p>","null","neutral_feedback","0","test","22","","","","","","","","","","","","","","","","","","","","",""
"","","","","","","","","","","","html-button-response","51","2.0.0","1051522","66eca7c326eed8fbf33a7b93","3","24","1066","","","","","","","","","<img src= ""rock_img/I_Peridotite_08.jpg"" style=""width:8cm; height:6.7cm;""><p>What type of rock is this?</p>","1","class_response","0","test","23","Basalt","Peridotite","08","false","2","7","","","","","","","","","","","","","","",""
"","","","","","","","","","","","html-keyboard-response","52","2.0.0","1052033","66eca7c326eed8fbf33a7b93","3","24","null","","","","","","","","","<p style='font-size: 30px;'><strong>Okay</strong></p>","null","neutral_feedback","0","test","23","","","","","","","","","","","","","","","","","","","","",""
"","","","","","","","","","","","html-button-response","53","2.0.0","1054111","66eca7c326eed8fbf33a7b93","3","24","2074","","","","","","","","","<img src= ""rock_img/I_Basalt_10.jpg"" style=""width:8cm; height:5.85cm;""><p>What type of rock is this?</p>","7","class_response","0","test","24","Pumice","Basalt","10","false","8","2","","","","","","","","","","","","","","",""
"","","","","","","","","","","","html-keyboard-response","54","2.0.0","1054618","66eca7c326eed8fbf33a7b93","3","24","null","","","","","","","","","<p style='font-size: 30px;'><strong>Okay</strong></p>","null","neutral_feedback","0","test","24","","","","","","","","","","","","","","","","","","","","",""
"","","","","","","","","","","","html-button-response","55","2.0.0","1071627","66eca7c326eed8fbf33a7b93","3","24","17006","","","","","","","","","<img src= ""rock_img/I_Pegmatite_15.jpg"" style=""width:8cm; height:6cm;""><p>What type of rock is this?</p>","7","class_response","0","test","25","Pumice","Pegmatite","15","false","8","6","","","","","","","","","","","","","","",""
"","","","","","","","","","","","html-keyboard-response","56","2.0.0","1072130","66eca7c326eed8fbf33a7b93","3","24","null","","","","","","","","","<p style='font-size: 30px;'><strong>Okay</strong></p>","null","neutral_feedback","0","test","25","","","","","","","","","","","","","","","","","","","","",""
"","","","","","","","","","","","html-button-response","57","2.0.0","1077209","66eca7c326eed8fbf33a7b93","3","24","5076","","","","","","","","","<img src= ""rock_img/I_Pegmatite_05.jpg"" style=""width:8cm; height:7.300000000000001cm;""><p>What type of rock is this?</p>","1","class_response","0","test","26","Basalt","Pegmatite","05","false","2","6","","","","","","","","","","","","","","",""
"","","","","","","","","","","","html-keyboard-response","58","2.0.0","1077713","66eca7c326eed8fbf33a7b93","3","24","null","","","","","","","","","<p style='font-size: 30px;'><strong>Okay</strong></p>","null","neutral_feedback","0","test","26","","","","","","","","","","","","","","","","","","","","",""
"","","","","","","","","","","","html-button-response","59","2.0.0","1078741","66eca7c326eed8fbf33a7b93","3","24","1024","","","","","","","","","<img src= ""rock_img/I_Andesite_06.jpg"" style=""width:8cm; height:6.840000000000001cm;""><p>What type of rock is this?</p>","5","class_response","0","test","27","Pegmatite","Andesite","06","false","6","1","","","","","","","","","","","","","","",""
"","","","","","","","","","","","html-keyboard-response","60","2.0.0","1079245","66eca7c326eed8fbf33a7b93","3","24","null","","","","","","","","","<p style='font-size: 30px;'><strong>Okay</strong></p>","null","neutral_feedback","0","test","27","","","","","","","","","","","","","","","","","","","","",""
"","","","","","","","","","","","html-button-response","61","2.0.0","1079832","66eca7c326eed8fbf33a7b93","3","24","584","","","","","","","","","<img src= ""rock_img/I_Diorite_07.jpg"" style=""width:8cm; height:5.239999999999999cm;""><p>What type of rock is this?</p>","6","class_response","0","test","28","Peridotite","Diorite","07","false","7","3","","","","","","","","","","","","","","",""
"","","","","","","","","","","","html-keyboard-response","62","2.0.0","1080339","66eca7c326eed8fbf33a7b93","3","24","null","","","","","","","","","<p style='font-size: 30px;'><strong>Okay</strong></p>","null","neutral_feedback","0","test","28","","","","","","","","","","","","","","","","","","","","",""
"","","","","","","","","","","","html-button-response","63","2.0.0","1081274","66eca7c326eed8fbf33a7b93","3","24","930","","","","","","","","","<img src= ""rock_img/I_Peridotite_13.jpg"" style=""width:8cm; height:7.58cm;""><p>What type of rock is this?</p>","0","class_response","0","test","29","Andesite","Peridotite","13","false","1","7","","","","","","","","","","","","","","",""
"","","","","","","","","","","","html-keyboard-response","64","2.0.0","1081779","66eca7c326eed8fbf33a7b93","3","24","null","","","","","","","","","<p style='font-size: 30px;'><strong>Okay</strong></p>","null","neutral_feedback","0","test","29","","","","","","","","","","","","","","","","","","","","",""
"","","","","","","","","","","","html-button-response","65","2.0.0","1083253","66eca7c326eed8fbf33a7b93","3","24","1470","","","","","","","","","<img src= ""rock_img/I_Andesite_04.jpg"" style=""width:8cm; height:5.96cm;""><p>What type of rock is this?</p>","3","class_response","0","test","30","Gabbro","Andesite","04","false","4","1","","","","","","","","","","","","","","",""
"","","","","","","","","","","","html-keyboard-response","66","2.0.0","1083756","66eca7c326eed8fbf33a7b93","3","24","null","","","","","","","","","<p style='font-size: 30px;'><strong>Okay</strong></p>","null","neutral_feedback","0","test","30","","","","","","","","","","","","","","","","","","","","",""
"","","","","","","","","","","","html-button-response","67","2.0.0","1085252","66eca7c326eed8fbf33a7b93","3","24","1493","","","","","","","","","<img src= ""rock_img/I_Basalt_06.jpg"" style=""width:8cm; height:7.06cm;""><p>What type of rock is this?</p>","1","class_response","0","test","31","Basalt","Basalt","06","true","2","2","","","","","","","","","","","","","","",""
"","","","","","","","","","","","html-keyboard-response","68","2.0.0","1085758","66eca7c326eed8fbf33a7b93","3","24","null","","","","","","","","","<p style='font-size: 30px;'><strong>Okay</strong></p>","null","neutral_feedback","0","test","31","","","","","","","","","","","","","","","","","","","","",""
"","","","","","","","","","","","html-button-response","69","2.0.0","1086484","66eca7c326eed8fbf33a7b93","3","24","722","","","","","","","","","<img src= ""rock_img/I_Basalt_04.jpg"" style=""width:8cm; height:7.53cm;""><p>What type of rock is this?</p>","0","class_response","0","test","32","Andesite","Basalt","04","false","1","2","","","","","","","","","","","","","","",""
"","","","","","","","","","","","html-keyboard-response","70","2.0.0","1086987","66eca7c326eed8fbf33a7b93","3","24","null","","","","","","","","","<p style='font-size: 30px;'><strong>Okay</strong></p>","null","neutral_feedback","0","test","32","","","","","","","","","","","","","","","","","","","","",""
"","","","","","","","","","","","html-button-response","71","2.0.0","1088547","66eca7c326eed8fbf33a7b93","3","24","1558","","","","","","","","","<img src= ""rock_img/I_Gabbro_03.jpg"" style=""width:8cm; height:8.52cm;""><p>What type of rock is this?</p>","1","class_response","0","test","33","Basalt","Gabbro","03","false","2","4","","","","","","","","","","","","","","",""
"","","","","","","","","","","","html-keyboard-response","72","2.0.0","1089051","66eca7c326eed8fbf33a7b93","3","24","null","","","","","","","","","<p style='font-size: 30px;'><strong>Okay</strong></p>","null","neutral_feedback","0","test","33","","","","","","","","","","","","","","","","","","","","",""
"","","","","","","","","","","","html-button-response","73","2.0.0","1089900","66eca7c326eed8fbf33a7b93","3","24","846","","","","","","","","","<img src= ""rock_img/I_Gabbro_14.jpg"" style=""width:8cm; height:8.48cm;""><p>What type of rock is this?</p>","0","class_response","0","test","34","Andesite","Gabbro","14","false","1","4","","","","","","","","","","","","","","",""
"","","","","","","","","","","","html-keyboard-response","74","2.0.0","1090409","66eca7c326eed8fbf33a7b93","3","24","null","","","","","","","","","<p style='font-size: 30px;'><strong>Okay</strong></p>","null","neutral_feedback","0","test","34","","","","","","","","","","","","","","","","","","","","",""
"","","","","","","","","","","","html-button-response","75","2.0.0","1092245","66eca7c326eed8fbf33a7b93","3","24","1832","","","","","","","","","<img src= ""rock_img/I_Gabbro_08.jpg"" style=""width:8cm; height:5.15cm;""><p>What type of rock is this?</p>","6","class_response","0","test","35","Peridotite","Gabbro","08","false","7","4","","","","","","","","","","","","","","",""
"","","","","","","","","","","","html-keyboard-response","76","2.0.0","1092747","66eca7c326eed8fbf33a7b93","3","24","null","","","","","","","","","<p style='font-size: 30px;'><strong>Okay</strong></p>","null","neutral_feedback","0","test","35","","","","","","","","","","","","","","","","","","","","",""
"","","","","","","","","","","","html-button-response","77","2.0.0","1094438","66eca7c326eed8fbf33a7b93","3","24","1688","","","","","","","","","<img src= ""rock_img/I_Obsidian_02.jpg"" style=""width:8cm; height:7.51cm;""><p>What type of rock is this?</p>","1","class_response","0","test","36","Basalt","Obsidian","02","false","2","5","","","","","","","","","","","","","","",""
"","","","","","","","","","","","html-keyboard-response","78","2.0.0","1094945","66eca7c326eed8fbf33a7b93","3","24","null","","","","","","","","","<p style='font-size: 30px;'><strong>Okay</strong></p>","null","neutral_feedback","0","test","36","","","","","","","","","","","","","","","","","","","","",""
"","","","","","","","","","","","html-button-response","79","2.0.0","1095759","66eca7c326eed8fbf33a7b93","3","24","811","","","","","","","","","<img src= ""rock_img/I_Basalt_16.jpg"" style=""width:8cm; height:7.659999999999999cm;""><p>What type of rock is this?</p>","2","class_response","0","test","37","Diorite","Basalt","16","false","3","2","","","","","","","","","","","","","","",""
"","","","","","","","","","","","html-keyboard-response","80","2.0.0","1096264","66eca7c326eed8fbf33a7b93","3","24","null","","","","","","","","","<p style='font-size: 30px;'><strong>Okay</strong></p>","null","neutral_feedback","0","test","37","","","","","","","","","","","","","","","","","","","","",""
"","","","","","","","","","","","html-button-response","81","2.0.0","1097060","66eca7c326eed8fbf33a7b93","3","24","793","","","","","","","","","<img src= ""rock_img/I_Andesite_14.jpg"" style=""width:8cm; height:5.449999999999999cm;""><p>What type of rock is this?</p>","5","class_response","0","test","38","Pegmatite","Andesite","14","false","6","1","","","","","","","","","","","","","","",""
"","","","","","","","","","","","html-keyboard-response","82","2.0.0","1097568","66eca7c326eed8fbf33a7b93","3","24","null","","","","","","","","","<p style='font-size: 30px;'><strong>Okay</strong></p>","null","neutral_feedback","0","test","38","","","","","","","","","","","","","","","","","","","","",""
"","","","","","","","","","","","html-button-response","83","2.0.0","1104717","66eca7c326eed8fbf33a7b93","3","24","7145","","","","","","","","","<img src= ""rock_img/I_Pumice_03.jpg"" style=""width:8cm; height:6.64cm;""><p>What type of rock is this?</p>","0","class_response","0","test","39","Andesite","Pumice","03","false","1","8","","","","","","","","","","","","","","",""
"","","","","","","","","","","","html-keyboard-response","84","2.0.0","1105221","66eca7c326eed8fbf33a7b93","3","24","null","","","","","","","","","<p style='font-size: 30px;'><strong>Okay</strong></p>","null","neutral_feedback","0","test","39","","","","","","","","","","","","","","","","","","","","",""
"","","","","","","","","","","","html-button-response","85","2.0.0","1106183","66eca7c326eed8fbf33a7b93","3","24","958","","","","","","","","","<img src= ""rock_img/I_Basalt_12.jpg"" style=""width:8cm; height:6.010000000000001cm;""><p>What type of rock is this?</p>","5","class_response","0","test","40","Pegmatite","Basalt","12","false","6","2","","","","","","","","","","","","","","",""
"","","","","","","","","","","","html-keyboard-response","86","2.0.0","1106689","66eca7c326eed8fbf33a7b93","3","24","null","","","","","","","","","<p style='font-size: 30px;'><strong>Okay</strong></p>","null","neutral_feedback","0","test","40","","","","","","","","","","","","","","","","","","","","",""
"","","","","","","","","","","","html-button-response","87","2.0.0","1107477","66eca7c326eed8fbf33a7b93","3","24","785","","","","","","","","","<img src= ""rock_img/I_Peridotite_02.jpg"" style=""width:8cm; height:5.859999999999999cm;""><p>What type of rock is this?</p>","6","class_response","0","test","41","Peridotite","Peridotite","02","true","7","7","","","","","","","","","","","","","","",""
"","","","","","","","","","","","html-keyboard-response","88","2.0.0","1108006","66eca7c326eed8fbf33a7b93","3","24","null","","","","","","","","","<p style='font-size: 30px;'><strong>Okay</strong></p>","null","neutral_feedback","0","test","41","","","","","","","","","","","","","","","","","","","","",""
"","","","","","","","","","","","html-button-response","89","2.0.0","1109050","66eca7c326eed8fbf33a7b93","3","24","1040","","","","","","","","","<img src= ""rock_img/I_Andesite_10.jpg"" style=""width:8cm; height:4.16cm;""><p>What type of rock is this?</p>","1","class_response","0","test","42","Basalt","Andesite","10","false","2","1","","","","","","","","","","","","","","",""
"","","","","","","","","","","","html-keyboard-response","90","2.0.0","1109555","66eca7c326eed8fbf33a7b93","3","24","null","","","","","","","","","<p style='font-size: 30px;'><strong>Okay</strong></p>","null","neutral_feedback","0","test","42","","","","","","","","","","","","","","","","","","","","",""
"","","","","","","","","","","","html-button-response","91","2.0.0","1111380","66eca7c326eed8fbf33a7b93","3","24","1821","","","","","","","","","<img src= ""rock_img/I_Peridotite_07.jpg"" style=""width:8cm; height:4.83cm;""><p>What type of rock is this?</p>","3","class_response","0","test","43","Gabbro","Peridotite","07","false","4","7","","","","","","","","","","","","","","",""
"","","","","","","","","","","","html-keyboard-response","92","2.0.0","1111887","66eca7c326eed8fbf33a7b93","3","24","null","","","","","","","","","<p style='font-size: 30px;'><strong>Okay</strong></p>","null","neutral_feedback","0","test","43","","","","","","","","","","","","","","","","","","","","",""
"","","","","","","","","","","","html-button-response","93","2.0.0","1112531","66eca7c326eed8fbf33a7b93","3","24","641","","","","","","","","","<img src= ""rock_img/I_Obsidian_12.jpg"" style=""width:8cm; height:6.53cm;""><p>What type of rock is this?</p>","2","class_response","0","test","44","Diorite","Obsidian","12","false","3","5","","","","","","","","","","","","","","",""
"","","","","","","","","","","","html-keyboard-response","94","2.0.0","1113036","66eca7c326eed8fbf33a7b93","3","24","null","","","","","","","","","<p style='font-size: 30px;'><strong>Okay</strong></p>","null","neutral_feedback","0","test","44","","","","","","","","","","","","","","","","","","","","",""
"","","","","","","","","","","","html-button-response","95","2.0.0","1113635","66eca7c326eed8fbf33a7b93","3","24","596","","","","","","","","","<img src= ""rock_img/I_Gabbro_01.jpg"" style=""width:8cm; height:5.21cm;""><p>What type of rock is this?</p>","4","class_response","0","test","45","Obsidian","Gabbro","01","false","5","4","","","","","","","","","","","","","","",""
"","","","","","","","","","","","html-keyboard-response","96","2.0.0","1114151","66eca7c326eed8fbf33a7b93","3","24","null","","","","","","","","","<p style='font-size: 30px;'><strong>Okay</strong></p>","null","neutral_feedback","0","test","45","","","","","","","","","","","","","","","","","","","","",""
"","","","","","","","","","","","html-button-response","97","2.0.0","1115928","66eca7c326eed8fbf33a7b93","3","24","1773","","","","","","","","","<img src= ""rock_img/I_Gabbro_13.jpg"" style=""width:8cm; height:5.08cm;""><p>What type of rock is this?</p>","5","class_response","0","test","46","Pegmatite","Gabbro","13","false","6","4","","","","","","","","","","","","","","",""
"","","","","","","","","","","","html-keyboard-response","98","2.0.0","1116439","66eca7c326eed8fbf33a7b93","3","24","null","","","","","","","","","<p style='font-size: 30px;'><strong>Okay</strong></p>","null","neutral_feedback","0","test","46","","","","","","","","","","","","","","","","","","","","",""
"","","","","","","","","","","","html-button-response","99","2.0.0","1117328","66eca7c326eed8fbf33a7b93","3","24","886","","","","","","","","","<img src= ""rock_img/I_Peridotite_06.jpg"" style=""width:8cm; height:7.53cm;""><p>What type of rock is this?</p>","2","class_response","0","test","47","Diorite","Peridotite","06","false","3","7","","","","","","","","","","","","","","",""
"","","","","","","","","","","","html-keyboard-response","100","2.0.0","1117834","66eca7c326eed8fbf33a7b93","3","24","null","","","","","","","","","<p style='font-size: 30px;'><strong>Okay</strong></p>","null","neutral_feedback","0","test","47","","","","","","","","","","","","","","","","","","","","",""
"","","","","","","","","","","","html-button-response","101","2.0.0","1118604","66eca7c326eed8fbf33a7b93","3","24","766","","","","","","","","","<img src= ""rock_img/I_Pegmatite_07.jpg"" style=""width:8cm; height:6.7cm;""><p>What type of rock is this?</p>","5","class_response","0","test","48","Pegmatite","Pegmatite","07","true","6","6","","","","","","","","","","","","","","",""
"","","","","","","","","","","","html-keyboard-response","102","2.0.0","1119111","66eca7c326eed8fbf33a7b93","3","24","null","","","","","","","","","<p style='font-size: 30px;'><strong>Okay</strong></p>","null","neutral_feedback","0","test","48","","","","","","","","","","","","","","","","","","","","",""
"","","","","","","","","","","","instructions","103","2.0.0","1139723","66eca7c326eed8fbf33a7b93","3","24","20495","","","","","","","","[{""page_index"":0,""viewing_time"":15648},{""page_index"":1,""viewing_time"":4846}]","","","","","","","","","","","","","","","","","","","","","","","","","","",""
"","","","","","","","","","","","html-button-response","104","2.0.0","1142795","66eca7c326eed8fbf33a7b93","3","24","3067","","","","","","","","","","0","start_train","","","","","","","","","","","","","","","","","","","","","","","",""
"","","","","","","","","","","","html-button-response","106","2.0.0","1144844","66eca7c326eed8fbf33a7b93","3","24","2045","","","","","","","","","<img src= ""rock_img/I_Diorite_14.jpg"" style=""width:8cm; height:5.71cm;""><p>What type of rock is this?</p>","2","class_response","1","train","1","Diorite","Diorite","14","true","3","3","","","","","","","","","","","","","","",""
"","","","","","","","","","","","html-button-response","107","2.0.0","1251949","66eca7c326eed8fbf33a7b93","3","24","107101","","","","","","","","","<img src= rock_img/I_Diorite_14.jpg style=""width:8cm; height:5.71cm;""><p style='font-size: 30px; color: green;'><strong>Correct!</strong></p><p style='font-size: 30px;'><strong>This rock is diorite</strong></p>","0","corr_feedback","1","train","1","","","","","","","","","","","","","","","","","","","","",""
"","","","","","","","","","","","html-button-response","108","2.0.0","1253698","66eca7c326eed8fbf33a7b93","3","24","1745","","","","","","","","","<img src= ""rock_img/I_Gabbro_10.jpg"" style=""width:8cm; height:5.680000000000001cm;""><p>What type of rock is this?</p>","4","class_response","1","train","2","Obsidian","Gabbro","10","false","5","4","","","","","","","","","","","","","","",""
"","","","","","","","","","","","html-button-response","109","2.0.0","1258042","66eca7c326eed8fbf33a7b93","3","24","4341","","","","","","","","","<img src= rock_img/I_Gabbro_10.jpg style=""width:8cm; height:5.680000000000001cm;""><p style='font-size: 30px; color: red;'><strong>Incorrect!</strong></p><p style='font-size: 30px;'><strong>This rock is gabbro</strong></p>","0","corr_feedback","1","train","2","","","","","","","","","","","","","","","","","","","","",""
"","","","","","","","","","","","html-button-response","110","2.0.0","1259440","66eca7c326eed8fbf33a7b93","3","24","1396","","","","","","","","","<img src= ""rock_img/I_Basalt_14.jpg"" style=""width:8cm; height:5.82cm;""><p>What type of rock is this?</p>","2","class_response","1","train","3","Diorite","Basalt","14","false","3","2","","","","","","","","","","","","","","",""
"","","","","","","","","","","","html-button-response","111","2.0.0","1265410","66eca7c326eed8fbf33a7b93","3","24","5966","","","","","","","","","<img src= rock_img/I_Basalt_14.jpg style=""width:8cm; height:5.82cm;""><p style='font-size: 30px; color: red;'><strong>Incorrect!</strong></p><p style='font-size: 30px;'><strong>This rock is basalt</strong></p>","0","corr_feedback","1","train","3","","","","","","","","","","","","","","","","","","","","",""
"","","","","","","","","","","","html-button-response","112","2.0.0","1268138","66eca7c326eed8fbf33a7b93","3","24","2724","","","","","","","","","<img src= ""rock_img/I_Obsidian_09.jpg"" style=""width:8cm; height:5cm;""><p>What type of rock is this?</p>","0","class_response","1","train","4","Andesite","Obsidian","09","false","1","5","","","","","","","","","","","","","","",""
"","","","","","","","","","","","html-button-response","113","2.0.0","1270749","66eca7c326eed8fbf33a7b93","3","24","2607","","","","","","","","","<img src= rock_img/I_Obsidian_09.jpg style=""width:8cm; height:5cm;""><p style='font-size: 30px; color: red;'><strong>Incorrect!</strong></p><p style='font-size: 30px;'><strong>This rock is obsidian</strong></p>","0","corr_feedback","1","train","4","","","","","","","","","","","","","","","","","","","","",""
"","","","","","","","","","","","html-button-response","114","2.0.0","1271960","66eca7c326eed8fbf33a7b93","3","24","1207","","","","","","","","","<img src= ""rock_img/I_Pegmatite_08.jpg"" style=""width:8cm; height:7.68cm;""><p>What type of rock is this?</p>","6","class_response","1","train","5","Peridotite","Pegmatite","08","false","7","6","","","","","","","","","","","","","","",""
"","","","","","","","","","","","html-button-response","115","2.0.0","1274322","66eca7c326eed8fbf33a7b93","3","24","2358","","","","","","","","","<img src= rock_img/I_Pegmatite_08.jpg style=""width:8cm; height:7.68cm;""><p style='font-size: 30px; color: red;'><strong>Incorrect!</strong></p><p style='font-size: 30px;'><strong>This rock is pegmatite</strong></p>","0","corr_feedback","1","train","5","","","","","","","","","","","","","","","","","","","","",""
"","","","","","","","","","","","html-button-response","116","2.0.0","1275492","66eca7c326eed8fbf33a7b93","3","24","1167","","","","","","","","","<img src= ""rock_img/I_Obsidian_10.jpg"" style=""width:8cm; height:6.260000000000001cm;""><p>What type of rock is this?</p>","5","class_response","1","train","6","Pegmatite","Obsidian","10","false","6","5","","","","","","","","","","","","","","",""
"","","","","","","","","","","","html-button-response","117","2.0.0","1278741","66eca7c326eed8fbf33a7b93","3","24","3245","","","","","","","","","<img src= rock_img/I_Obsidian_10.jpg style=""width:8cm; height:6.260000000000001cm;""><p style='font-size: 30px; color: red;'><strong>Incorrect!</strong></p><p style='font-size: 30px;'><strong>This rock is obsidian</strong></p>","0","corr_feedback","1","train","6","","","","","","","","","","","","","","","","","","","","",""
"","","","","","","","","","","","html-button-response","118","2.0.0","1280559","66eca7c326eed8fbf33a7b93","3","24","1815","","","","","","","","","<img src= ""rock_img/I_Peridotite_04.jpg"" style=""width:8cm; height:6.680000000000001cm;""><p>What type of rock is this?</p>","2","class_response","1","train","7","Diorite","Peridotite","04","false","3","7","","","","","","","","","","","","","","",""
"","","","","","","","","","","","html-button-response","119","2.0.0","1282939","66eca7c326eed8fbf33a7b93","3","24","2378","","","","","","","","","<img src= rock_img/I_Peridotite_04.jpg style=""width:8cm; height:6.680000000000001cm;""><p style='font-size: 30px; color: red;'><strong>Incorrect!</strong></p><p style='font-size: 30px;'><strong>This rock is peridotite</strong></p>","0","corr_feedback","1","train","7","","","","","","","","","","","","","","","","","","","","",""
"","","","","","","","","","","","html-button-response","120","2.0.0","1284104","66eca7c326eed8fbf33a7b93","3","24","1160","","","","","","","","","<img src= ""rock_img/I_Gabbro_16.jpg"" style=""width:8cm; height:6.44cm;""><p>What type of rock is this?</p>","4","class_response","1","train","8","Obsidian","Gabbro","16","false","5","4","","","","","","","","","","","","","","",""
"","","","","","","","","","","","html-button-response","121","2.0.0","1286702","66eca7c326eed8fbf33a7b93","3","24","2594","","","","","","","","","<img src= rock_img/I_Gabbro_16.jpg style=""width:8cm; height:6.44cm;""><p style='font-size: 30px; color: red;'><strong>Incorrect!</strong></p><p style='font-size: 30px;'><strong>This rock is gabbro</strong></p>","0","corr_feedback","1","train","8","","","","","","","","","","","","","","","","","","","","",""
"","","","","","","","","","","","html-button-response","122","2.0.0","1288718","66eca7c326eed8fbf33a7b93","3","24","2012","","","","","","","","","<img src= ""rock_img/I_Pumice_15.jpg"" style=""width:8cm; height:7.86cm;""><p>What type of rock is this?</p>","7","class_response","1","train","9","Pumice","Pumice","15","true","8","8","","","","","","","","","","","","","","",""
"","","","","","","","","","","","html-button-response","123","2.0.0","1293397","66eca7c326eed8fbf33a7b93","3","24","4677","","","","","","","","","<img src= rock_img/I_Pumice_15.jpg style=""width:8cm; height:7.86cm;""><p style='font-size: 30px; color: green;'><strong>Correct!</strong></p><p style='font-size: 30px;'><strong>This rock is pumice</strong></p>","0","corr_feedback","1","train","9","","","","","","","","","","","","","","","","","","","","",""
"","","","","","","","","","","","html-button-response","124","2.0.0","1294636","66eca7c326eed8fbf33a7b93","3","24","1236","","","","","","","","","<img src= ""rock_img/I_Pumice_04.jpg"" style=""width:8cm; height:6.819999999999999cm;""><p>What type of rock is this?</p>","0","class_response","1","train","10","Andesite","Pumice","04","false","1","8","","","","","","","","","","","","","","",""
"","","","","","","","","","","","html-button-response","125","2.0.0","1297061","66eca7c326eed8fbf33a7b93","3","24","2422","","","","","","","","","<img src= rock_img/I_Pumice_04.jpg style=""width:8cm; height:6.819999999999999cm;""><p style='font-size: 30px; color: red;'><strong>Incorrect!</strong></p><p style='font-size: 30px;'><strong>This rock is pumice</strong></p>","0","corr_feedback","1","train","10","","","","","","","","","","","","","","","","","","","","",""
"","","","","","","","","","","","html-button-response","126","2.0.0","1298627","66eca7c326eed8fbf33a7b93","3","24","1562","","","","","","","","","<img src= ""rock_img/I_Peridotite_16.jpg"" style=""width:8cm; height:6.989999999999999cm;""><p>What type of rock is this?</p>","2","class_response","1","train","11","Diorite","Peridotite","16","false","3","7","","","","","","","","","","","","","","",""
"","","","","","","","","","","","html-button-response","127","2.0.0","1300723","66eca7c326eed8fbf33a7b93","3","24","2094","","","","","","","","","<img src= rock_img/I_Peridotite_16.jpg style=""width:8cm; height:6.989999999999999cm;""><p style='font-size: 30px; color: red;'><strong>Incorrect!</strong></p><p style='font-size: 30px;'><strong>This rock is peridotite</strong></p>","0","corr_feedback","1","train","11","","","","","","","","","","","","","","","","","","","","",""
"","","","","","","","","","","","html-button-response","128","2.0.0","1301972","66eca7c326eed8fbf33a7b93","3","24","1246","","","","","","","","","<img src= ""rock_img/I_Andesite_16.jpg"" style=""width:8cm; height:6.010000000000001cm;""><p>What type of rock is this?</p>","4","class_response","1","train","12","Obsidian","Andesite","16","false","5","1","","","","","","","","","","","","","","",""
"","","","","","","","","","","","html-button-response","129","2.0.0","1304255","66eca7c326eed8fbf33a7b93","3","24","2280","","","","","","","","","<img src= rock_img/I_Andesite_16.jpg style=""width:8cm; height:6.010000000000001cm;""><p style='font-size: 30px; color: red;'><strong>Incorrect!</strong></p><p style='font-size: 30px;'><strong>This rock is andesite</strong></p>","0","corr_feedback","1","train","12","","","","","","","","","","","","","","","","","","","","",""
"","","","","","","","","","","","instructions","130","2.0.0","1359891","66eca7c326eed8fbf33a7b93","3","24","55634","","","","","","","","[{""page_index"":0,""viewing_time"":11602},{""page_index"":1,""viewing_time"":23300},{""page_index"":2,""viewing_time"":16685},{""page_index"":3,""viewing_time"":4046}]","","","","","","","","","","","","","","","","","","","","","","","","","","",""
"","","","","","","","","","","","html-button-response","131","2.0.0","1361246","66eca7c326eed8fbf33a7b93","3","24","1352","","","","","","","","","","0","start_train","","","","","","","","","","","","","","","","","","","","","","","",""
"","","","","","","","","","","","html-button-response","132","2.0.0","1369193","66eca7c326eed8fbf33a7b93","3","24","","","","","","","","","","","","cat_selection","1","train","1","","","","","","","4","7","7942.70000000298","Gabbro","Peridotite","[0.125,0.10326086956521739,0.125,0.1467391304347826,0.125,0.10326086956521739,0.125,0.1467391304347826]","[0.15673538743155463,0.15567098238434643,0.05562466733312052,null,0.16577332671633124,0.1568874452954415,0.26335820509588825,0.045949985743317566]","","","","","","","",""
"","","","","","","","","","","","paired-cat-display","133","1.0.0","1690995","66eca7c326eed8fbf33a7b93","3","24","","","","","","","","","","","","paired_cat_display","1","train","1","","","","","","","","","12158.90000000596","","","","","Has a coarse texture and appears dark in color, often black or dark green","Has coarse-grained texture","309633.5","","","","",""
"","","","","","","","","","","","html-button-response","134","2.0.0","1704771","66eca7c326eed8fbf33a7b93","3","24","","","","","","","","","","","","cat_selection","1","train","2","","","","","","","2","3","13770.70000000298","Basalt","Diorite","[0.125,0.10326086956521739,0.125,0.1467391304347826,0.125,0.10326086956521739,0.125,0.1467391304347826]","[0.21271645044961449,null,0.20109309894592067,0.05546724245954847,0.05948719634204867,0.2003215926452388,0.05785282115244632,0.21306159800518268]","","","","","","","",""
"","","","","","","","","","","","paired-cat-display","135","1.0.0","1778266","66eca7c326eed8fbf33a7b93","3","24","","","","","","","","","","","","paired_cat_display","1","train","2","","","","","","","","","6275","","","","","","","67212.09999999404","fine grained texture","appearance is kind of a mix of different minerals","","",""
"","","","","","","","","","","","html-button-response","136","2.0.0","1785296","66eca7c326eed8fbf33a7b93","3","24","","","","","","","","","","","","cat_selection","1","train","3","","","","","","","2","6","7027","Basalt","Pegmatite","[0.125,0.10326086956521739,0.125,0.1467391304347826,0.125,0.10326086956521739,0.125,0.1467391304347826]","[0.21271645044961449,null,0.20109309894592067,0.05546724245954847,0.05948719634204867,0.2003215926452388,0.05785282115244632,0.21306159800518268]","","","","","","","",""
"","","","","","","","","","","","paired-cat-display","137","1.0.0","1837798","66eca7c326eed8fbf33a7b93","3","24","","","","","","","","","","","","paired_cat_display","1","train","3","","","","","","","","","9027.79999999702","","","","","","","43468.60000000894","fine grained texture","","coarse grained texture","",""
"","","","","","","","","","","","instructions","138","2.0.0","1857502","66eca7c326eed8fbf33a7b93","3","24","19699","","","","","","","","[{""page_index"":0,""viewing_time"":8766},{""page_index"":1,""viewing_time"":10933}]","","","","","","","","","","","","","","","","","","","","","","","","","","",""
"","","","","","","","","","","","html-button-response","139","2.0.0","1859406","66eca7c326eed8fbf33a7b93","3","24","1902","","","","","","","","","","0","start_test","","","","","","","","","","","","","","","","","","","","","","","",""
"","","","","","","","","","","","html-button-response","140","2.0.0","1906343","66eca7c326eed8fbf33a7b93","3","24","46933","","","","","","","","","<img src= ""rock_img/I_Basalt_16.jpg"" style=""width:8cm; height:7.659999999999999cm;""><p>What type of rock is this?</p>","1","class_response","1","test","1","Basalt","Basalt","16","true","2","2","","","","","","","","","","","","","","",""
"","","","","","","","","","","","html-keyboard-response","141","2.0.0","1906858","66eca7c326eed8fbf33a7b93","3","24","null","","","","","","","","","<p style='font-size: 30px;'><strong>Okay</strong></p>","null","neutral_feedback","1","test","1","","","","","","","","","","","","","","","","","","","","",""
"","","","","","","","","","","","html-button-response","142","2.0.0","1941306","66eca7c326eed8fbf33a7b93","3","24","34445","","","","","","","","","<img src= ""rock_img/I_Pegmatite_16.jpg"" style=""width:8cm; height:5.8cm;""><p>What type of rock is this?</p>","5","class_response","1","test","2","Pegmatite","Pegmatite","16","true","6","6","","","","","","","","","","","","","","",""
"","","","","","","","","","","","html-keyboard-response","143","2.0.0","1941818","66eca7c326eed8fbf33a7b93","3","24","null","","","","","","","","","<p style='font-size: 30px;'><strong>Okay</strong></p>","null","neutral_feedback","1","test","2","","","","","","","","","","","","","","","","","","","","",""
"","","","","","","","","","","","html-button-response","144","2.0.0","1972939","66eca7c326eed8fbf33a7b93","3","24","31118","","","","","","","","","<img src= ""rock_img/I_Diorite_10.jpg"" style=""width:8cm; height:5.949999999999999cm;""><p>What type of rock is this?</p>","2","class_response","1","test","3","Diorite","Diorite","10","true","3","3","","","","","","","","","","","","","","",""
"","","","","","","","","","","","html-keyboard-response","145","2.0.0","1973460","66eca7c326eed8fbf33a7b93","3","24","null","","","","","","","","","<p style='font-size: 30px;'><strong>Okay</strong></p>","null","neutral_feedback","1","test","3","","","","","","","","","","","","","","","","","","","","",""
"","","","","","","","","","","","html-button-response","146","2.0.0","2005977","66eca7c326eed8fbf33a7b93","3","24","32513","","","","","","","","","<img src= ""rock_img/I_Peridotite_06.jpg"" style=""width:8cm; height:7.53cm;""><p>What type of rock is this?</p>","6","class_response","1","test","4","Peridotite","Peridotite","06","true","7","7","","","","","","","","","","","","","","",""
"","","","","","","","","","","","html-keyboard-response","147","2.0.0","2006499","66eca7c326eed8fbf33a7b93","3","24","null","","","","","","","","","<p style='font-size: 30px;'><strong>Okay</strong></p>","null","neutral_feedback","1","test","4","","","","","","","","","","","","","","","","","","","","",""
"","","","","","","","","","","","html-button-response","148","2.0.0","2027992","66eca7c326eed8fbf33a7b93","3","24","21490","","","","","","","","","<img src= ""rock_img/I_Gabbro_03.jpg"" style=""width:8cm; height:8.52cm;""><p>What type of rock is this?</p>","3","class_response","1","test","5","Gabbro","Gabbro","03","true","4","4","","","","","","","","","","","","","","",""
"","","","","","","","","","","","html-keyboard-response","149","2.0.0","2028503","66eca7c326eed8fbf33a7b93","3","24","null","","","","","","","","","<p style='font-size: 30px;'><strong>Okay</strong></p>","null","neutral_feedback","1","test","5","","","","","","","","","","","","","","","","","","","","",""
"","","","","","","","","","","","html-button-response","150","2.0.0","2040574","66eca7c326eed8fbf33a7b93","3","24","12068","","","","","","","","","<img src= ""rock_img/I_Diorite_02.jpg"" style=""width:8cm; height:6.27cm;""><p>What type of rock is this?</p>","2","class_response","1","test","6","Diorite","Diorite","02","true","3","3","","","","","","","","","","","","","","",""
"","","","","","","","","","","","html-keyboard-response","151","2.0.0","2041084","66eca7c326eed8fbf33a7b93","3","24","null","","","","","","","","","<p style='font-size: 30px;'><strong>Okay</strong></p>","null","neutral_feedback","1","test","6","","","","","","","","","","","","","","","","","","","","",""
"","","","","","","","","","","","html-button-response","152","2.0.0","2048609","66eca7c326eed8fbf33a7b93","3","24","7522","","","","","","","","","<img src= ""rock_img/I_Pumice_10.jpg"" style=""width:8cm; height:7.609999999999999cm;""><p>What type of rock is this?</p>","7","class_response","1","test","7","Pumice","Pumice","10","true","8","8","","","","","","","","","","","","","","",""
"","","","","","","","","","","","html-keyboard-response","153","2.0.0","2049113","66eca7c326eed8fbf33a7b93","3","24","null","","","","","","","","","<p style='font-size: 30px;'><strong>Okay</strong></p>","null","neutral_feedback","1","test","7","","","","","","","","","","","","","","","","","","","","",""
"","","","","","","","","","","","html-button-response","154","2.0.0","2055989","66eca7c326eed8fbf33a7b93","3","24","6873","","","","","","","","","<img src= ""rock_img/I_Diorite_16.jpg"" style=""width:8cm; height:6.74cm;""><p>What type of rock is this?</p>","2","class_response","1","test","8","Diorite","Diorite","16","true","3","3","","","","","","","","","","","","","","",""
"","","","","","","","","","","","html-keyboard-response","155","2.0.0","2056494","66eca7c326eed8fbf33a7b93","3","24","null","","","","","","","","","<p style='font-size: 30px;'><strong>Okay</strong></p>","null","neutral_feedback","1","test","8","","","","","","","","","","","","","","","","","","","","",""
"","","","","","","","","","","","html-button-response","156","2.0.0","2061876","66eca7c326eed8fbf33a7b93","3","24","5380","","","","","","","","","<img src= ""rock_img/I_Basalt_06.jpg"" style=""width:8cm; height:7.06cm;""><p>What type of rock is this?</p>","1","class_response","1","test","9","Basalt","Basalt","06","true","2","2","","","","","","","","","","","","","","",""
"","","","","","","","","","","","html-keyboard-response","157","2.0.0","2062389","66eca7c326eed8fbf33a7b93","3","24","null","","","","","","","","","<p style='font-size: 30px;'><strong>Okay</strong></p>","null","neutral_feedback","1","test","9","","","","","","","","","","","","","","","","","","","","",""
"","","","","","","","","","","","html-button-response","158","2.0.0","2068909","66eca7c326eed8fbf33a7b93","3","24","6518","","","","","","","","","<img src= ""rock_img/I_Obsidian_12.jpg"" style=""width:8cm; height:6.53cm;""><p>What type of rock is this?</p>","4","class_response","1","test","10","Obsidian","Obsidian","12","true","5","5","","","","","","","","","","","","","","",""
"","","","","","","","","","","","html-keyboard-response","159","2.0.0","2069412","66eca7c326eed8fbf33a7b93","3","24","null","","","","","","","","","<p style='font-size: 30px;'><strong>Okay</strong></p>","null","neutral_feedback","1","test","10","","","","","","","","","","","","","","","","","","","","",""
"","","","","","","","","","","","html-button-response","160","2.0.0","2090724","66eca7c326eed8fbf33a7b93","3","24","21308","","","","","","","","","<img src= ""rock_img/I_Basalt_08.jpg"" style=""width:8cm; height:10.44cm;""><p>What type of rock is this?</p>","1","class_response","1","test","11","Basalt","Basalt","08","true","2","2","","","","","","","","","","","","","","",""
"","","","","","","","","","","","html-keyboard-response","161","2.0.0","2091233","66eca7c326eed8fbf33a7b93","3","24","null","","","","","","","","","<p style='font-size: 30px;'><strong>Okay</strong></p>","null","neutral_feedback","1","test","11","","","","","","","","","","","","","","","","","","","","",""
"","","","","","","","","","","","html-button-response","162","2.0.0","2183038","66eca7c326eed8fbf33a7b93","3","24","91801","","","","","","","","","<img src= ""rock_img/I_Andesite_04.jpg"" style=""width:8cm; height:5.96cm;""><p>What type of rock is this?</p>","6","class_response","1","test","12","Peridotite","Andesite","04","false","7","1","","","","","","","","","","","","","","",""
"","","","","","","","","","","","html-keyboard-response","163","2.0.0","2183545","66eca7c326eed8fbf33a7b93","3","24","null","","","","","","","","","<p style='font-size: 30px;'><strong>Okay</strong></p>","null","neutral_feedback","1","test","12","","","","","","","","","","","","","","","","","","","","",""
"","","","","","","","","","","","html-button-response","164","2.0.0","2188828","66eca7c326eed8fbf33a7b93","3","24","5279","","","","","","","","","<img src= ""rock_img/I_Pumice_03.jpg"" style=""width:8cm; height:6.64cm;""><p>What type of rock is this?</p>","7","class_response","1","test","13","Pumice","Pumice","03","true","8","8","","","","","","","","","","","","","","",""
"","","","","","","","","","","","html-keyboard-response","165","2.0.0","2189331","66eca7c326eed8fbf33a7b93","3","24","null","","","","","","","","","<p style='font-size: 30px;'><strong>Okay</strong></p>","null","neutral_feedback","1","test","13","","","","","","","","","","","","","","","","","","","","",""
"","","","","","","","","","","","html-button-response","166","2.0.0","2201534","66eca7c326eed8fbf33a7b93","3","24","12200","","","","","","","","","<img src= ""rock_img/I_Peridotite_13.jpg"" style=""width:8cm; height:7.58cm;""><p>What type of rock is this?</p>","6","class_response","1","test","14","Peridotite","Peridotite","13","true","7","7","","","","","","","","","","","","","","",""
"","","","","","","","","","","","html-keyboard-response","167","2.0.0","2202036","66eca7c326eed8fbf33a7b93","3","24","null","","","","","","","","","<p style='font-size: 30px;'><strong>Okay</strong></p>","null","neutral_feedback","1","test","14","","","","","","","","","","","","","","","","","","","","",""
"","","","","","","","","","","","html-button-response","168","2.0.0","2232000","66eca7c326eed8fbf33a7b93","3","24","29961","","","","","","","","","<img src= ""rock_img/I_Peridotite_08.jpg"" style=""width:8cm; height:6.7cm;""><p>What type of rock is this?</p>","2","class_response","1","test","15","Diorite","Peridotite","08","false","3","7","","","","","","","","","","","","","","",""
"","","","","","","","","","","","html-keyboard-response","169","2.0.0","2232505","66eca7c326eed8fbf33a7b93","3","24","null","","","","","","","","","<p style='font-size: 30px;'><strong>Okay</strong></p>","null","neutral_feedback","1","test","15","","","","","","","","","","","","","","","","","","","","",""
"","","","","","","","","","","","html-button-response","170","2.0.0","2362444","66eca7c326eed8fbf33a7b93","3","24","129936","","","","","","","","","<img src= ""rock_img/I_Basalt_04.jpg"" style=""width:8cm; height:7.53cm;""><p>What type of rock is this?</p>","0","class_response","1","test","16","Andesite","Basalt","04","false","1","2","","","","","","","","","","","","","","",""
"","","","","","","","","","","","html-keyboard-response","171","2.0.0","2362955","66eca7c326eed8fbf33a7b93","3","24","null","","","","","","","","","<p style='font-size: 30px;'><strong>Okay</strong></p>","null","neutral_feedback","1","test","16","","","","","","","","","","","","","","","","","","","","",""
"","","","","","","","","","","","html-button-response","172","2.0.0","2384384","66eca7c326eed8fbf33a7b93","3","24","21425","","","","","","","","","<img src= ""rock_img/I_Obsidian_04.jpg"" style=""width:8cm; height:6.930000000000001cm;""><p>What type of rock is this?</p>","4","class_response","1","test","17","Obsidian","Obsidian","04","true","5","5","","","","","","","","","","","","","","",""
"","","","","","","","","","","","html-keyboard-response","173","2.0.0","2384888","66eca7c326eed8fbf33a7b93","3","24","null","","","","","","","","","<p style='font-size: 30px;'><strong>Okay</strong></p>","null","neutral_feedback","1","test","17","","","","","","","","","","","","","","","","","","","","",""
"","","","","","","","","","","","html-button-response","174","2.0.0","2391977","66eca7c326eed8fbf33a7b93","3","24","7086","","","","","","","","","<img src= ""rock_img/I_Basalt_10.jpg"" style=""width:8cm; height:5.85cm;""><p>What type of rock is this?</p>","4","class_response","1","test","18","Obsidian","Basalt","10","false","5","2","","","","","","","","","","","","","","",""
"","","","","","","","","","","","html-keyboard-response","175","2.0.0","2392493","66eca7c326eed8fbf33a7b93","3","24","null","","","","","","","","","<p style='font-size: 30px;'><strong>Okay</strong></p>","null","neutral_feedback","1","test","18","","","","","","","","","","","","","","","","","","","","",""
"","","","","","","","","","","","html-button-response","176","2.0.0","2398204","66eca7c326eed8fbf33a7b93","3","24","5708","","","","","","","","","<img src= ""rock_img/I_Basalt_12.jpg"" style=""width:8cm; height:6.010000000000001cm;""><p>What type of rock is this?</p>","1","class_response","1","test","19","Basalt","Basalt","12","true","2","2","","","","","","","","","","","","","","",""
"","","","","","","","","","","","html-keyboard-response","177","2.0.0","2398710","66eca7c326eed8fbf33a7b93","3","24","null","","","","","","","","","<p style='font-size: 30px;'><strong>Okay</strong></p>","null","neutral_feedback","1","test","19","","","","","","","","","","","","","","","","","","","","",""
"","","","","","","","","","","","html-button-response","178","2.0.0","2428464","66eca7c326eed8fbf33a7b93","3","24","29751","","","","","","","","","<img src= ""rock_img/I_Obsidian_07.jpg"" style=""width:8cm; height:4.76cm;""><p>What type of rock is this?</p>","4","class_response","1","test","20","Obsidian","Obsidian","07","true","5","5","","","","","","","","","","","","","","",""
"","","","","","","","","","","","html-keyboard-response","179","2.0.0","2428968","66eca7c326eed8fbf33a7b93","3","24","null","","","","","","","","","<p style='font-size: 30px;'><strong>Okay</strong></p>","null","neutral_feedback","1","test","20","","","","","","","","","","","","","","","","","","","","",""
"","","","","","","","","","","","html-button-response","180","2.0.0","2477257","66eca7c326eed8fbf33a7b93","3","24","48285","","","","","","","","","<img src= ""rock_img/I_Gabbro_13.jpg"" style=""width:8cm; height:5.08cm;""><p>What type of rock is this?</p>","6","class_response","1","test","21","Peridotite","Gabbro","13","false","7","4","","","","","","","","","","","","","","",""
"","","","","","","","","","","","html-keyboard-response","181","2.0.0","2477771","66eca7c326eed8fbf33a7b93","3","24","null","","","","","","","","","<p style='font-size: 30px;'><strong>Okay</strong></p>","null","neutral_feedback","1","test","21","","","","","","","","","","","","","","","","","","","","",""
"","","","","","","","","","","","html-button-response","182","2.0.0","2539044","66eca7c326eed8fbf33a7b93","3","24","61270","","","","","","","","","<img src= ""rock_img/I_Pegmatite_15.jpg"" style=""width:8cm; height:6cm;""><p>What type of rock is this?</p>","5","class_response","1","test","22","Pegmatite","Pegmatite","15","true","6","6","","","","","","","","","","","","","","",""
"","","","","","","","","","","","html-keyboard-response","183","2.0.0","2539553","66eca7c326eed8fbf33a7b93","3","24","null","","","","","","","","","<p style='font-size: 30px;'><strong>Okay</strong></p>","null","neutral_feedback","1","test","22","","","","","","","","","","","","","","","","","","","","",""
"","","","","","","","","","","","html-button-response","184","2.0.0","2544869","66eca7c326eed8fbf33a7b93","3","24","5314","","","","","","","","","<img src= ""rock_img/I_Gabbro_11.jpg"" style=""width:8cm; height:6.2cm;""><p>What type of rock is this?</p>","3","class_response","1","test","23","Gabbro","Gabbro","11","true","4","4","","","","","","","","","","","","","","",""
"","","","","","","","","","","","html-keyboard-response","185","2.0.0","2545373","66eca7c326eed8fbf33a7b93","3","24","null","","","","","","","","","<p style='font-size: 30px;'><strong>Okay</strong></p>","null","neutral_feedback","1","test","23","","","","","","","","","","","","","","","","","","","","",""
"","","","","","","","","","","","html-button-response","186","2.0.0","2550756","66eca7c326eed8fbf33a7b93","3","24","5380","","","","","","","","","<img src= ""rock_img/I_Obsidian_06.jpg"" style=""width:8cm; height:6.8cm;""><p>What type of rock is this?</p>","4","class_response","1","test","24","Obsidian","Obsidian","06","true","5","5","","","","","","","","","","","","","","",""
"","","","","","","","","","","","html-keyboard-response","187","2.0.0","2551259","66eca7c326eed8fbf33a7b93","3","24","null","","","","","","","","","<p style='font-size: 30px;'><strong>Okay</strong></p>","null","neutral_feedback","1","test","24","","","","","","","","","","","","","","","","","","","","",""
"","","","","","","","","","","","html-button-response","188","2.0.0","2560354","66eca7c326eed8fbf33a7b93","3","24","9092","","","","","","","","","<img src= ""rock_img/I_Pegmatite_03.jpg"" style=""width:8cm; height:5.239999999999999cm;""><p>What type of rock is this?</p>","6","class_response","1","test","25","Peridotite","Pegmatite","03","false","7","6","","","","","","","","","","","","","","",""
"","","","","","","","","","","","html-keyboard-response","189","2.0.0","2560865","66eca7c326eed8fbf33a7b93","3","24","null","","","","","","","","","<p style='font-size: 30px;'><strong>Okay</strong></p>","null","neutral_feedback","1","test","25","","","","","","","","","","","","","","","","","","","","",""
"","","","","","","","","","","","html-button-response","190","2.0.0","2595855","66eca7c326eed8fbf33a7b93","3","24","34987","","","","","","","","","<img src= ""rock_img/I_Pegmatite_10.jpg"" style=""width:8cm; height:4.16cm;""><p>What type of rock is this?</p>","0","class_response","1","test","26","Andesite","Pegmatite","10","false","1","6","","","","","","","","","","","","","","",""
"","","","","","","","","","","","html-keyboard-response","191","2.0.0","2596372","66eca7c326eed8fbf33a7b93","3","24","null","","","","","","","","","<p style='font-size: 30px;'><strong>Okay</strong></p>","null","neutral_feedback","1","test","26","","","","","","","","","","","","","","","","","","","","",""
"","","","","","","","","","","","html-button-response","192","2.0.0","2599624","66eca7c326eed8fbf33a7b93","3","24","3249","","","","","","","","","<img src= ""rock_img/I_Pumice_16.jpg"" style=""width:8cm; height:6.79cm;""><p>What type of rock is this?</p>","1","class_response","1","test","27","Basalt","Pumice","16","false","2","8","","","","","","","","","","","","","","",""
"","","","","","","","","","","","html-keyboard-response","193","2.0.0","2600141","66eca7c326eed8fbf33a7b93","3","24","null","","","","","","","","","<p style='font-size: 30px;'><strong>Okay</strong></p>","null","neutral_feedback","1","test","27","","","","","","","","","","","","","","","","","","","","",""
"","","","","","","","","","","","html-button-response","194","2.0.0","2603531","66eca7c326eed8fbf33a7b93","3","24","3387","","","","","","","","","<img src= ""rock_img/I_Andesite_07.jpg"" style=""width:8cm; height:5.93cm;""><p>What type of rock is this?</p>","2","class_response","1","test","28","Diorite","Andesite","07","false","3","1","","","","","","","","","","","","","","",""
"","","","","","","","","","","","html-keyboard-response","195","2.0.0","2604045","66eca7c326eed8fbf33a7b93","3","24","null","","","","","","","","","<p style='font-size: 30px;'><strong>Okay</strong></p>","null","neutral_feedback","1","test","28","","","","","","","","","","","","","","","","","","","","",""
"","","","","","","","","","","","html-button-response","196","2.0.0","2610009","66eca7c326eed8fbf33a7b93","3","24","5961","","","","","","","","","<img src= ""rock_img/I_Pegmatite_05.jpg"" style=""width:8cm; height:7.300000000000001cm;""><p>What type of rock is this?</p>","6","class_response","1","test","29","Peridotite","Pegmatite","05","false","7","6","","","","","","","","","","","","","","",""
"","","","","","","","","","","","html-keyboard-response","197","2.0.0","2610520","66eca7c326eed8fbf33a7b93","3","24","null","","","","","","","","","<p style='font-size: 30px;'><strong>Okay</strong></p>","null","neutral_feedback","1","test","29","","","","","","","","","","","","","","","","","","","","",""
"","","","","","","","","","","","html-button-response","198","2.0.0","2615095","66eca7c326eed8fbf33a7b93","3","24","4572","","","","","","","","","<img src= ""rock_img/I_Obsidian_14.jpg"" style=""width:8cm; height:7.64cm;""><p>What type of rock is this?</p>","5","class_response","1","test","30","Pegmatite","Obsidian","14","false","6","5","","","","","","","","","","","","","","",""
"","","","","","","","","","","","html-keyboard-response","199","2.0.0","2615608","66eca7c326eed8fbf33a7b93","3","24","null","","","","","","","","","<p style='font-size: 30px;'><strong>Okay</strong></p>","null","neutral_feedback","1","test","30","","","","","","","","","","","","","","","","","","","","",""
"","","","","","","","","","","","html-button-response","200","2.0.0","2619742","66eca7c326eed8fbf33a7b93","3","24","4132","","","","","","","","","<img src= ""rock_img/I_Peridotite_07.jpg"" style=""width:8cm; height:4.83cm;""><p>What type of rock is this?</p>","3","class_response","1","test","31","Gabbro","Peridotite","07","false","4","7","","","","","","","","","","","","","","",""
"","","","","","","","","","","","html-keyboard-response","201","2.0.0","2620257","66eca7c326eed8fbf33a7b93","3","24","null","","","","","","","","","<p style='font-size: 30px;'><strong>Okay</strong></p>","null","neutral_feedback","1","test","31","","","","","","","","","","","","","","","","","","","","",""
"","","","","","","","","","","","html-button-response","202","2.0.0","2627199","66eca7c326eed8fbf33a7b93","3","24","6940","","","","","","","","","<img src= ""rock_img/I_Andesite_10.jpg"" style=""width:8cm; height:4.16cm;""><p>What type of rock is this?</p>","0","class_response","1","test","32","Andesite","Andesite","10","true","1","1","","","","","","","","","","","","","","",""
"","","","","","","","","","","","html-keyboard-response","203","2.0.0","2627709","66eca7c326eed8fbf33a7b93","3","24","null","","","","","","","","","<p style='font-size: 30px;'><strong>Okay</strong></p>","null","neutral_feedback","1","test","32","","","","","","","","","","","","","","","","","","","","",""
"","","","","","","","","","","","html-button-response","204","2.0.0","2629764","66eca7c326eed8fbf33a7b93","3","24","2052","","","","","","","","","<img src= ""rock_img/I_Andesite_06.jpg"" style=""width:8cm; height:6.840000000000001cm;""><p>What type of rock is this?</p>","0","class_response","1","test","33","Andesite","Andesite","06","true","1","1","","","","","","","","","","","","","","",""
"","","","","","","","","","","","html-keyboard-response","205","2.0.0","2630287","66eca7c326eed8fbf33a7b93","3","24","null","","","","","","","","","<p style='font-size: 30px;'><strong>Okay</strong></p>","null","neutral_feedback","1","test","33","","","","","","","","","","","","","","","","","","","","",""
"","","","","","","","","","","","html-button-response","206","2.0.0","2642104","66eca7c326eed8fbf33a7b93","3","24","11814","","","","","","","","","<img src= ""rock_img/I_Andesite_11.jpg"" style=""width:8cm; height:4.92cm;""><p>What type of rock is this?</p>","3","class_response","1","test","34","Gabbro","Andesite","11","false","4","1","","","","","","","","","","","","","","",""
"","","","","","","","","","","","html-keyboard-response","207","2.0.0","2642614","66eca7c326eed8fbf33a7b93","3","24","null","","","","","","","","","<p style='font-size: 30px;'><strong>Okay</strong></p>","null","neutral_feedback","1","test","34","","","","","","","","","","","","","","","","","","","","",""
"","","","","","","","","","","","html-button-response","208","2.0.0","2647700","66eca7c326eed8fbf33a7b93","3","24","5083","","","","","","","","","<img src= ""rock_img/I_Pumice_08.jpg"" style=""width:8cm; height:6.67cm;""><p>What type of rock is this?</p>","7","class_response","1","test","35","Pumice","Pumice","08","true","8","8","","","","","","","","","","","","","","",""
"","","","","","","","","","","","html-keyboard-response","209","2.0.0","2648219","66eca7c326eed8fbf33a7b93","3","24","null","","","","","","","","","<p style='font-size: 30px;'><strong>Okay</strong></p>","null","neutral_feedback","1","test","35","","","","","","","","","","","","","","","","","","","","",""
"","","","","","","","","","","","html-button-response","210","2.0.0","2650448","66eca7c326eed8fbf33a7b93","3","24","2226","","","","","","","","","<img src= ""rock_img/I_Andesite_14.jpg"" style=""width:8cm; height:5.449999999999999cm;""><p>What type of rock is this?</p>","5","class_response","1","test","36","Pegmatite","Andesite","14","false","6","1","","","","","","","","","","","","","","",""
"","","","","","","","","","","","html-keyboard-response","211","2.0.0","2650952","66eca7c326eed8fbf33a7b93","3","24","null","","","","","","","","","<p style='font-size: 30px;'><strong>Okay</strong></p>","null","neutral_feedback","1","test","36","","","","","","","","","","","","","","","","","","","","",""
"","","","","","","","","","","","html-button-response","212","2.0.0","2652013","66eca7c326eed8fbf33a7b93","3","24","1057","","","","","","","","","<img src= ""rock_img/I_Peridotite_02.jpg"" style=""width:8cm; height:5.859999999999999cm;""><p>What type of rock is this?</p>","2","class_response","1","test","37","Diorite","Peridotite","02","false","3","7","","","","","","","","","","","","","","",""
"","","","","","","","","","","","html-keyboard-response","213","2.0.0","2652522","66eca7c326eed8fbf33a7b93","3","24","null","","","","","","","","","<p style='font-size: 30px;'><strong>Okay</strong></p>","null","neutral_feedback","1","test","37","","","","","","","","","","","","","","","","","","","","",""
"","","","","","","","","","","","html-button-response","214","2.0.0","2653505","66eca7c326eed8fbf33a7b93","3","24","980","","","","","","","","","<img src= ""rock_img/I_Gabbro_01.jpg"" style=""width:8cm; height:5.21cm;""><p>What type of rock is this?</p>","4","class_response","1","test","38","Obsidian","Gabbro","01","false","5","4","","","","","","","","","","","","","","",""
"","","","","","","","","","","","html-keyboard-response","215","2.0.0","2654009","66eca7c326eed8fbf33a7b93","3","24","null","","","","","","","","","<p style='font-size: 30px;'><strong>Okay</strong></p>","null","neutral_feedback","1","test","38","","","","","","","","","","","","","","","","","","","","",""
"","","","","","","","","","","","html-button-response","216","2.0.0","2656535","66eca7c326eed8fbf33a7b93","3","24","2523","","","","","","","","","<img src= ""rock_img/I_Diorite_11.jpg"" style=""width:8cm; height:7.11cm;""><p>What type of rock is this?</p>","2","class_response","1","test","39","Diorite","Diorite","11","true","3","3","","","","","","","","","","","","","","",""
"","","","","","","","","","","","html-keyboard-response","217","2.0.0","2657046","66eca7c326eed8fbf33a7b93","3","24","null","","","","","","","","","<p style='font-size: 30px;'><strong>Okay</strong></p>","null","neutral_feedback","1","test","39","","","","","","","","","","","","","","","","","","","","",""
"","","","","","","","","","","","html-button-response","218","2.0.0","2658574","66eca7c326eed8fbf33a7b93","3","24","1525","","","","","","","","","<img src= ""rock_img/I_Pumice_14.jpg"" style=""width:8cm; height:6.39cm;""><p>What type of rock is this?</p>","1","class_response","1","test","40","Basalt","Pumice","14","false","2","8","","","","","","","","","","","","","","",""
"","","","","","","","","","","","html-keyboard-response","219","2.0.0","2659087","66eca7c326eed8fbf33a7b93","3","24","null","","","","","","","","","<p style='font-size: 30px;'><strong>Okay</strong></p>","null","neutral_feedback","1","test","40","","","","","","","","","","","","","","","","","","","","",""
"","","","","","","","","","","","html-button-response","220","2.0.0","2660159","66eca7c326eed8fbf33a7b93","3","24","1067","","","","","","","","","<img src= ""rock_img/I_Pumice_09.jpg"" style=""width:8cm; height:6.44cm;""><p>What type of rock is this?</p>","6","class_response","1","test","41","Peridotite","Pumice","09","false","7","8","","","","","","","","","","","","","","",""
"","","","","","","","","","","","html-keyboard-response","221","2.0.0","2660670","66eca7c326eed8fbf33a7b93","3","24","null","","","","","","","","","<p style='font-size: 30px;'><strong>Okay</strong></p>","null","neutral_feedback","1","test","41","","","","","","","","","","","","","","","","","","","","",""
"","","","","","","","","","","","html-button-response","222","2.0.0","2662986","66eca7c326eed8fbf33a7b93","3","24","2313","","","","","","","","","<img src= ""rock_img/I_Gabbro_14.jpg"" style=""width:8cm; height:8.48cm;""><p>What type of rock is this?</p>","0","class_response","1","test","42","Andesite","Gabbro","14","false","1","4","","","","","","","","","","","","","","",""
"","","","","","","","","","","","html-keyboard-response","223","2.0.0","2663498","66eca7c326eed8fbf33a7b93","3","24","null","","","","","","","","","<p style='font-size: 30px;'><strong>Okay</strong></p>","null","neutral_feedback","1","test","42","","","","","","","","","","","","","","","","","","","","",""
"","","","","","","","","","","","html-button-response","224","2.0.0","2664367","66eca7c326eed8fbf33a7b93","3","24","865","","","","","","","","","<img src= ""rock_img/I_Gabbro_08.jpg"" style=""width:8cm; height:5.15cm;""><p>What type of rock is this?</p>","7","class_response","1","test","43","Pumice","Gabbro","08","false","8","4","","","","","","","","","","","","","","",""
"","","","","","","","","","","","html-keyboard-response","225","2.0.0","2664881","66eca7c326eed8fbf33a7b93","3","24","null","","","","","","","","","<p style='font-size: 30px;'><strong>Okay</strong></p>","null","neutral_feedback","1","test","43","","","","","","","","","","","","","","","","","","","","",""
"","","","","","","","","","","","html-button-response","226","2.0.0","2665662","66eca7c326eed8fbf33a7b93","3","24","777","","","","","","","","","<img src= ""rock_img/I_Obsidian_02.jpg"" style=""width:8cm; height:7.51cm;""><p>What type of rock is this?</p>","2","class_response","1","test","44","Diorite","Obsidian","02","false","3","5","","","","","","","","","","","","","","",""
"","","","","","","","","","","","html-keyboard-response","227","2.0.0","2666167","66eca7c326eed8fbf33a7b93","3","24","null","","","","","","","","","<p style='font-size: 30px;'><strong>Okay</strong></p>","null","neutral_feedback","1","test","44","","","","","","","","","","","","","","","","","","","","",""
"","","","","","","","","","","","html-button-response","228","2.0.0","2668783","66eca7c326eed8fbf33a7b93","3","24","2612","","","","","","","","","<img src= ""rock_img/I_Pegmatite_07.jpg"" style=""width:8cm; height:6.7cm;""><p>What type of rock is this?</p>","6","class_response","1","test","45","Peridotite","Pegmatite","07","false","7","6","","","","","","","","","","","","","","",""
"","","","","","","","","","","","html-keyboard-response","229","2.0.0","2669300","66eca7c326eed8fbf33a7b93","3","24","null","","","","","","","","","<p style='font-size: 30px;'><strong>Okay</strong></p>","null","neutral_feedback","1","test","45","","","","","","","","","","","","","","","","","","","","",""
"","","","","","","","","","","","html-button-response","230","2.0.0","2670710","66eca7c326eed8fbf33a7b93","3","24","1406","","","","","","","","","<img src= ""rock_img/I_Peridotite_15.jpg"" style=""width:8cm; height:6cm;""><p>What type of rock is this?</p>","5","class_response","1","test","46","Pegmatite","Peridotite","15","false","6","7","","","","","","","","","","","","","","",""
"","","","","","","","","","","","html-keyboard-response","231","2.0.0","2671231","66eca7c326eed8fbf33a7b93","3","24","null","","","","","","","","","<p style='font-size: 30px;'><strong>Okay</strong></p>","null","neutral_feedback","1","test","46","","","","","","","","","","","","","","","","","","","","",""
"","","","","","","","","","","","html-button-response","232","2.0.0","2673845","66eca7c326eed8fbf33a7b93","3","24","2611","","","","","","","","","<img src= ""rock_img/I_Diorite_08.jpg"" style=""width:8cm; height:6.37cm;""><p>What type of rock is this?</p>","2","class_response","1","test","47","Diorite","Diorite","08","true","3","3","","","","","","","","","","","","","","",""
"","","","","","","","","","","","html-keyboard-response","233","2.0.0","2674358","66eca7c326eed8fbf33a7b93","3","24","null","","","","","","","","","<p style='font-size: 30px;'><strong>Okay</strong></p>","null","neutral_feedback","1","test","47","","","","","","","","","","","","","","","","","","","","",""
"","","","","","","","","","","","html-button-response","234","2.0.0","2675544","66eca7c326eed8fbf33a7b93","3","24","1182","","","","","","","","","<img src= ""rock_img/I_Diorite_07.jpg"" style=""width:8cm; height:5.239999999999999cm;""><p>What type of rock is this?</p>","5","class_response","1","test","48","Pegmatite","Diorite","07","false","6","3","","","","","","","","","","","","","","",""
"","","","","","","","","","","","html-keyboard-response","235","2.0.0","2676056","66eca7c326eed8fbf33a7b93","3","24","null","","","","","","","","","<p style='font-size: 30px;'><strong>Okay</strong></p>","null","neutral_feedback","1","test","48","","","","","","","","","","","","","","","","","","","","",""
"","","","","","","","","","","","html-button-response","236","2.0.0","2686779","66eca7c326eed8fbf33a7b93","3","24","","","","","","","","","","","","cycle_feedback","","","","","","","","","","","","","","","","","","","","","","","4858.9000000059605","5840.70000000298"
"","","","","","","","","","","","html-button-response","238","2.0.0","2688875","66eca7c326eed8fbf33a7b93","3","24","2091","","","","","","","","","","0","start_train","","","","","","","","","","","","","","","","","","","","","","","",""
"","","","","","","","","","","","html-button-response","240","2.0.0","2690398","66eca7c326eed8fbf33a7b93","3","24","1519","","","","","","","","","<img src= ""rock_img/I_Basalt_14.jpg"" style=""width:8cm; height:5.82cm;""><p>What type of rock is this?</p>","2","class_response","2","train","1","Diorite","Basalt","14","false","3","2","","","","","","","","","","","","","","",""
"","","","","","","","","","","","html-button-response","241","2.0.0","2691513","66eca7c326eed8fbf33a7b93","3","24","1112","","","","","","","","","<img src= rock_img/I_Basalt_14.jpg style=""width:8cm; height:5.82cm;""><p style='font-size: 30px; color: red;'><strong>Incorrect!</strong></p><p style='font-size: 30px;'><strong>This rock is basalt</strong></p>","0","corr_feedback","2","train","1","","","","","","","","","","","","","","","","","","","","",""
"","","","","","","","","","","","html-button-response","242","2.0.0","2692665","66eca7c326eed8fbf33a7b93","3","24","1149","","","","","","","","","<img src= ""rock_img/I_Andesite_05.jpg"" style=""width:8cm; height:4.12cm;""><p>What type of rock is this?</p>","1","class_response","2","train","2","Basalt","Andesite","05","false","2","1","","","","","","","","","","","","","","",""
"","","","","","","","","","","","html-button-response","243","2.0.0","2693580","66eca7c326eed8fbf33a7b93","3","24","911","","","","","","","","","<img src= rock_img/I_Andesite_05.jpg style=""width:8cm; height:4.12cm;""><p style='font-size: 30px; color: red;'><strong>Incorrect!</strong></p><p style='font-size: 30px;'><strong>This rock is andesite</strong></p>","0","corr_feedback","2","train","2","","","","","","","","","","","","","","","","","","","","",""
"","","","","","","","","","","","html-button-response","244","2.0.0","2694429","66eca7c326eed8fbf33a7b93","3","24","846","","","","","","","","","<img src= ""rock_img/I_Pegmatite_08.jpg"" style=""width:8cm; height:7.68cm;""><p>What type of rock is this?</p>","0","class_response","2","train","3","Andesite","Pegmatite","08","false","1","6","","","","","","","","","","","","","","",""
"","","","","","","","","","","","html-button-response","245","2.0.0","2695379","66eca7c326eed8fbf33a7b93","3","24","947","","","","","","","","","<img src= rock_img/I_Pegmatite_08.jpg style=""width:8cm; height:7.68cm;""><p style='font-size: 30px; color: red;'><strong>Incorrect!</strong></p><p style='font-size: 30px;'><strong>This rock is pegmatite</strong></p>","0","corr_feedback","2","train","3","","","","","","","","","","","","","","","","","","","","",""
"","","","","","","","","","","","html-button-response","246","2.0.0","2696285","66eca7c326eed8fbf33a7b93","3","24","903","","","","","","","","","<img src= ""rock_img/I_Basalt_11.jpg"" style=""width:8cm; height:5.359999999999999cm;""><p>What type of rock is this?</p>","7","class_response","2","train","4","Pumice","Basalt","11","false","8","2","","","","","","","","","","","","","","",""
"","","","","","","","","","","","html-button-response","247","2.0.0","2697584","66eca7c326eed8fbf33a7b93","3","24","1296","","","","","","","","","<img src= rock_img/I_Basalt_11.jpg style=""width:8cm; height:5.359999999999999cm;""><p style='font-size: 30px; color: red;'><strong>Incorrect!</strong></p><p style='font-size: 30px;'><strong>This rock is basalt</strong></p>","0","corr_feedback","2","train","4","","","","","","","","","","","","","","","","","","","","",""
"","","","","","","","","","","","html-button-response","248","2.0.0","2699141","66eca7c326eed8fbf33a7b93","3","24","1554","","","","","","","","","<img src= ""rock_img/I_Obsidian_09.jpg"" style=""width:8cm; height:5cm;""><p>What type of rock is this?</p>","1","class_response","2","train","5","Basalt","Obsidian","09","false","2","5","","","","","","","","","","","","","","",""
"","","","","","","","","","","","html-button-response","249","2.0.0","2700084","66eca7c326eed8fbf33a7b93","3","24","939","","","","","","","","","<img src= rock_img/I_Obsidian_09.jpg style=""width:8cm; height:5cm;""><p style='font-size: 30px; color: red;'><strong>Incorrect!</strong></p><p style='font-size: 30px;'><strong>This rock is obsidian</strong></p>","0","corr_feedback","2","train","5","","","","","","","","","","","","","","","","","","","","",""
"","","","","","","","","","","","html-button-response","250","2.0.0","2701056","66eca7c326eed8fbf33a7b93","3","24","967","","","","","","","","","<img src= ""rock_img/I_Andesite_16.jpg"" style=""width:8cm; height:6.010000000000001cm;""><p>What type of rock is this?</p>","4","class_response","2","train","6","Obsidian","Andesite","16","false","5","1","","","","","","","","","","","","","","",""
"","","","","","","","","","","","html-button-response","251","2.0.0","2701987","66eca7c326eed8fbf33a7b93","3","24","927","","","","","","","","","<img src= rock_img/I_Andesite_16.jpg style=""width:8cm; height:6.010000000000001cm;""><p style='font-size: 30px; color: red;'><strong>Incorrect!</strong></p><p style='font-size: 30px;'><strong>This rock is andesite</strong></p>","0","corr_feedback","2","train","6","","","","","","","","","","","","","","","","","","","","",""
"","","","","","","","","","","","html-button-response","252","2.0.0","2702939","66eca7c326eed8fbf33a7b93","3","24","947","","","","","","","","","<img src= ""rock_img/I_Gabbro_10.jpg"" style=""width:8cm; height:5.680000000000001cm;""><p>What type of rock is this?</p>","3","class_response","2","train","7","Gabbro","Gabbro","10","true","4","4","","","","","","","","","","","","","","",""
"","","","","","","","","","","","html-button-response","253","2.0.0","2703870","66eca7c326eed8fbf33a7b93","3","24","927","","","","","","","","","<img src= rock_img/I_Gabbro_10.jpg style=""width:8cm; height:5.680000000000001cm;""><p style='font-size: 30px; color: green;'><strong>Correct!</strong></p><p style='font-size: 30px;'><strong>This rock is gabbro</strong></p>","0","corr_feedback","2","train","7","","","","","","","","","","","","","","","","","","","","",""
"","","","","","","","","","","","html-button-response","254","2.0.0","2704894","66eca7c326eed8fbf33a7b93","3","24","1022","","","","","","","","","<img src= ""rock_img/I_Peridotite_16.jpg"" style=""width:8cm; height:6.989999999999999cm;""><p>What type of rock is this?</p>","1","class_response","2","train","8","Basalt","Peridotite","16","false","2","7","","","","","","","","","","","","","","",""
"","","","","","","","","","","","html-button-response","255","2.0.0","2705870","66eca7c326eed8fbf33a7b93","3","24","974","","","","","","","","","<img src= rock_img/I_Peridotite_16.jpg style=""width:8cm; height:6.989999999999999cm;""><p style='font-size: 30px; color: red;'><strong>Incorrect!</strong></p><p style='font-size: 30px;'><strong>This rock is peridotite</strong></p>","0","corr_feedback","2","train","8","","","","","","","","","","","","","","","","","","","","",""
"","","","","","","","","","","","html-button-response","256","2.0.0","2706794","66eca7c326eed8fbf33a7b93","3","24","920","","","","","","","","","<img src= ""rock_img/I_Diorite_09.jpg"" style=""width:8cm; height:5.27cm;""><p>What type of rock is this?</p>","6","class_response","2","train","9","Peridotite","Diorite","09","false","7","3","","","","","","","","","","","","","","",""
"","","","","","","","","","","","html-button-response","257","2.0.0","2707600","66eca7c326eed8fbf33a7b93","3","24","803","","","","","","","","","<img src= rock_img/I_Diorite_09.jpg style=""width:8cm; height:5.27cm;""><p style='font-size: 30px; color: red;'><strong>Incorrect!</strong></p><p style='font-size: 30px;'><strong>This rock is diorite</strong></p>","0","corr_feedback","2","train","9","","","","","","","","","","","","","","","","","","","","",""
"","","","","","","","","","","","html-button-response","258","2.0.0","2708494","66eca7c326eed8fbf33a7b93","3","24","890","","","","","","","","","<img src= ""rock_img/I_Diorite_14.jpg"" style=""width:8cm; height:5.71cm;""><p>What type of rock is this?</p>","7","class_response","2","train","10","Pumice","Diorite","14","false","8","3","","","","","","","","","","","","","","",""
"","","","","","","","","","","","html-button-response","259","2.0.0","2709717","66eca7c326eed8fbf33a7b93","3","24","1218","","","","","","","","","<img src= rock_img/I_Diorite_14.jpg style=""width:8cm; height:5.71cm;""><p style='font-size: 30px; color: red;'><strong>Incorrect!</strong></p><p style='font-size: 30px;'><strong>This rock is diorite</strong></p>","0","corr_feedback","2","train","10","","","","","","","","","","","","","","","","","","","","",""
"","","","","","","","","","","","html-button-response","260","2.0.0","2710608","66eca7c326eed8fbf33a7b93","3","24","888","","","","","","","","","<img src= ""rock_img/I_Pegmatite_12.jpg"" style=""width:8cm; height:5.7cm;""><p>What type of rock is this?</p>","0","class_response","2","train","11","Andesite","Pegmatite","12","false","1","6","","","","","","","","","","","","","","",""
"","","","","","","","","","","","html-button-response","261","2.0.0","2711547","66eca7c326eed8fbf33a7b93","3","24","936","","","","","","","","","<img src= rock_img/I_Pegmatite_12.jpg style=""width:8cm; height:5.7cm;""><p style='font-size: 30px; color: red;'><strong>Incorrect!</strong></p><p style='font-size: 30px;'><strong>This rock is pegmatite</strong></p>","0","corr_feedback","2","train","11","","","","","","","","","","","","","","","","","","","","",""
"","","","","","","","","","","","html-button-response","262","2.0.0","2712446","66eca7c326eed8fbf33a7b93","3","24","896","","","","","","","","","<img src= ""rock_img/I_Pumice_15.jpg"" style=""width:8cm; height:7.86cm;""><p>What type of rock is this?</p>","2","class_response","2","train","12","Diorite","Pumice","15","false","3","8","","","","","","","","","","","","","","",""
"","","","","","","","","","","","html-button-response","263","2.0.0","2713738","66eca7c326eed8fbf33a7b93","3","24","1289","","","","","","","","","<img src= rock_img/I_Pumice_15.jpg style=""width:8cm; height:7.86cm;""><p style='font-size: 30px; color: red;'><strong>Incorrect!</strong></p><p style='font-size: 30px;'><strong>This rock is pumice</strong></p>","0","corr_feedback","2","train","12","","","","","","","","","","","","","","","","","","","","",""
"","","","","","","","","","","","html-button-response","265","2.0.0","2715147","66eca7c326eed8fbf33a7b93","3","24","1406","","","","","","","","","","0","start_train","","","","","","","","","","","","","","","","","","","","","","","",""
"","","","","","","","","","","","html-button-response","266","2.0.0","2716709","66eca7c326eed8fbf33a7b93","3","24","","","","","","","","","","","","cat_selection","2","train","1","","","","","","","6","7","1558.2000000029802","Pegmatite","Peridotite","[0.1422710347648787,0.09725355312525959,0.09045793047024257,0.15274644687474043,0.1077289652351213,0.131795622655017,0.1422710347648787,0.13547541210986172]","[0.15175096163701335,0.1777472608817523,0.03213328874020621,0.030663711712497117,0.10490737383274695,null,0.40527081547981486,0.09752658771596921]","","","","","","","",""
