"width","height","webaudio","browser","browser_version","mobile","os","fullscreen","vsync_rate","webcam","microphone","trial_type","trial_index","plugin_version","time_elapsed","subjID","condition","stimID","rt","url","success","value","timeout","failed_images","failed_audio","failed_video","view_history","stimulus","response","trialType","cycle","phase","trial","resp","cat","token","corr","resp_num","cat_num","time_fb1","time_fb2"
"1920","911","true","chrome","130.0.0","false","Windows 10","true","2.79","false","false","browser-check","0","2.0.0","21506","5e41d41c6b5ac80775e6cd5c","2","8","","","","","","","","","","","","","","","","","","","","","","",""
"","","","","","","","","","","","external-html","1","2.0.0","24736","5e41d41c6b5ac80775e6cd5c","2","8","3166","consent_form.html","","","","","","","","","","","","","","","","","","","","",""
"","","","","","","","","","","","fullscreen","2","2.0.0","27971","5e41d41c6b5ac80775e6cd5c","2","8","2229","","true","","","","","","","","","","","","","","","","","","","",""
"","","","","","","","","","","","call-function","3","2.0.0","27973","5e41d41c6b5ac80775e6cd5c","2","8","","","","{}","","","","","","","","","","","","","","","","","","",""
"","","","","","","","","","","","preload","4","2.0.0","29058","5e41d41c6b5ac80775e6cd5c","2","8","","","true","","false","[]","[]","[]","","","","","","","","","","","","","","",""
"","","","","","","","","","","","instructions","5","2.0.0","66160","5e41d41c6b5ac80775e6cd5c","2","8","37100","","","","","","","","[{""page_index"":0,""viewing_time"":10636},{""page_index"":1,""viewing_time"":9546},{""page_index"":2,""viewing_time"":16918}]","","","","","","","","","","","","","",""
"","","","","","","","","","","","html-button-response","6","2.0.0","67377","5e41d41c6b5ac80775e6cd5c","2","8","1216","","","","","","","","","","0","start_test","","","","","","","","","","",""
"","","","","","","","","","","","html-button-response","7","2.0.0","76896","5e41d41c6b5ac80775e6cd5c","2","8","9518","","","","","","","","","<img src= ""rock_img/I_Andesite_16.jpg"" style=""width:8cm; height:6.010000000000001cm;""><p>What type of rock is this?</p>","7","class_response","0","test","1","Pumice","Andesite","16","false","8","1","",""
"","","","","","","","","","","","html-keyboard-response","8","2.0.0","77405","5e41d41c6b5ac80775e6cd5c","2","8","null","","","","","","","","","<p style='font-size: 30px;'><strong>Okay</strong></p>","null","neutral_feedback","0","test","1","","","","","","","",""
"","","","","","","","","","","","html-button-response","9","2.0.0","81360","5e41d41c6b5ac80775e6cd5c","2","8","3953","","","","","","","","","<img src= ""rock_img/I_Gabbro_14.jpg"" style=""width:8cm; height:8.48cm;""><p>What type of rock is this?</p>","5","class_response","0","test","2","Pegmatite","Gabbro","14","false","6","4","",""
"","","","","","","","","","","","html-keyboard-response","10","2.0.0","81871","5e41d41c6b5ac80775e6cd5c","2","8","null","","","","","","","","","<p style='font-size: 30px;'><strong>Okay</strong></p>","null","neutral_feedback","0","test","2","","","","","","","",""
"","","","","","","","","","","","html-button-response","11","2.0.0","87008","5e41d41c6b5ac80775e6cd5c","2","8","5135","","","","","","","","","<img src= ""rock_img/I_Peridotite_13.jpg"" style=""width:8cm; height:7.58cm;""><p>What type of rock is this?</p>","2","class_response","0","test","3","Diorite","Peridotite","13","false","3","7","",""
"","","","","","","","","","","","html-keyboard-response","12","2.0.0","87520","5e41d41c6b5ac80775e6cd5c","2","8","null","","","","","","","","","<p style='font-size: 30px;'><strong>Okay</strong></p>","null","neutral_feedback","0","test","3","","","","","","","",""
"","","","","","","","","","","","html-button-response","13","2.0.0","89913","5e41d41c6b5ac80775e6cd5c","2","8","2391","","","","","","","","","<img src= ""rock_img/I_Pegmatite_13.jpg"" style=""width:8cm; height:4.95cm;""><p>What type of rock is this?</p>","3","class_response","0","test","4","Gabbro","Pegmatite","13","false","4","6","",""
"","","","","","","","","","","","html-keyboard-response","14","2.0.0","90421","5e41d41c6b5ac80775e6cd5c","2","8","null","","","","","","","","","<p style='font-size: 30px;'><strong>Okay</strong></p>","null","neutral_feedback","0","test","4","","","","","","","",""
"","","","","","","","","","","","html-button-response","15","2.0.0","91831","5e41d41c6b5ac80775e6cd5c","2","8","1409","","","","","","","","","<img src= ""rock_img/I_Diorite_13.jpg"" style=""width:8cm; height:6.29cm;""><p>What type of rock is this?</p>","7","class_response","0","test","5","Pumice","Diorite","13","false","8","3","",""
"","","","","","","","","","","","html-keyboard-response","16","2.0.0","92334","5e41d41c6b5ac80775e6cd5c","2","8","null","","","","","","","","","<p style='font-size: 30px;'><strong>Okay</strong></p>","null","neutral_feedback","0","test","5","","","","","","","",""
"","","","","","","","","","","","html-button-response","17","2.0.0","93545","5e41d41c6b5ac80775e6cd5c","2","8","1209","","","","","","","","","<img src= ""rock_img/I_Pumice_04.jpg"" style=""width:8cm; height:6.819999999999999cm;""><p>What type of rock is this?</p>","1","class_response","0","test","6","Basalt","Pumice","04","false","2","8","",""
"","","","","","","","","","","","html-keyboard-response","18","2.0.0","94056","5e41d41c6b5ac80775e6cd5c","2","8","null","","","","","","","","","<p style='font-size: 30px;'><strong>Okay</strong></p>","null","neutral_feedback","0","test","6","","","","","","","",""
"","","","","","","","","","","","html-button-response","19","2.0.0","95456","5e41d41c6b5ac80775e6cd5c","2","8","1399","","","","","","","","","<img src= ""rock_img/I_Gabbro_08.jpg"" style=""width:8cm; height:5.15cm;""><p>What type of rock is this?</p>","4","class_response","0","test","7","Obsidian","Gabbro","08","false","5","4","",""
"","","","","","","","","","","","html-keyboard-response","20","2.0.0","95959","5e41d41c6b5ac80775e6cd5c","2","8","null","","","","","","","","","<p style='font-size: 30px;'><strong>Okay</strong></p>","null","neutral_feedback","0","test","7","","","","","","","",""
"","","","","","","","","","","","html-button-response","21","2.0.0","97247","5e41d41c6b5ac80775e6cd5c","2","8","1287","","","","","","","","","<img src= ""rock_img/I_Gabbro_13.jpg"" style=""width:8cm; height:5.08cm;""><p>What type of rock is this?</p>","0","class_response","0","test","8","Andesite","Gabbro","13","false","1","4","",""
"","","","","","","","","","","","html-keyboard-response","22","2.0.0","97763","5e41d41c6b5ac80775e6cd5c","2","8","null","","","","","","","","","<p style='font-size: 30px;'><strong>Okay</strong></p>","null","neutral_feedback","0","test","8","","","","","","","",""
"","","","","","","","","","","","html-button-response","23","2.0.0","99136","5e41d41c6b5ac80775e6cd5c","2","8","1372","","","","","","","","","<img src= ""rock_img/I_Pumice_14.jpg"" style=""width:8cm; height:6.39cm;""><p>What type of rock is this?</p>","7","class_response","0","test","9","Pumice","Pumice","14","true","8","8","",""
"","","","","","","","","","","","html-keyboard-response","24","2.0.0","99639","5e41d41c6b5ac80775e6cd5c","2","8","null","","","","","","","","","<p style='font-size: 30px;'><strong>Okay</strong></p>","null","neutral_feedback","0","test","9","","","","","","","",""
"","","","","","","","","","","","html-button-response","25","2.0.0","104416","5e41d41c6b5ac80775e6cd5c","2","8","4775","","","","","","","","","<img src= ""rock_img/I_Diorite_11.jpg"" style=""width:8cm; height:7.11cm;""><p>What type of rock is this?</p>","6","class_response","0","test","10","Peridotite","Diorite","11","false","7","3","",""
"","","","","","","","","","","","html-keyboard-response","26","2.0.0","104926","5e41d41c6b5ac80775e6cd5c","2","8","null","","","","","","","","","<p style='font-size: 30px;'><strong>Okay</strong></p>","null","neutral_feedback","0","test","10","","","","","","","",""
"","","","","","","","","","","","html-button-response","27","2.0.0","109272","5e41d41c6b5ac80775e6cd5c","2","8","4343","","","","","","","","","<img src= ""rock_img/I_Pegmatite_10.jpg"" style=""width:8cm; height:4.16cm;""><p>What type of rock is this?</p>","5","class_response","0","test","11","Pegmatite","Pegmatite","10","true","6","6","",""
"","","","","","","","","","","","html-keyboard-response","28","2.0.0","109786","5e41d41c6b5ac80775e6cd5c","2","8","null","","","","","","","","","<p style='font-size: 30px;'><strong>Okay</strong></p>","null","neutral_feedback","0","test","11","","","","","","","",""
"","","","","","","","","","","","html-button-response","29","2.0.0","111783","5e41d41c6b5ac80775e6cd5c","2","8","1996","","","","","","","","","<img src= ""rock_img/I_Basalt_14.jpg"" style=""width:8cm; height:5.82cm;""><p>What type of rock is this?</p>","1","class_response","0","test","12","Basalt","Basalt","14","true","2","2","",""
"","","","","","","","","","","","html-keyboard-response","30","2.0.0","112297","5e41d41c6b5ac80775e6cd5c","2","8","null","","","","","","","","","<p style='font-size: 30px;'><strong>Okay</strong></p>","null","neutral_feedback","0","test","12","","","","","","","",""
"","","","","","","","","","","","html-button-response","31","2.0.0","114312","5e41d41c6b5ac80775e6cd5c","2","8","2013","","","","","","","","","<img src= ""rock_img/I_Pegmatite_11.jpg"" style=""width:8cm; height:8.14cm;""><p>What type of rock is this?</p>","0","class_response","0","test","13","Andesite","Pegmatite","11","false","1","6","",""
"","","","","","","","","","","","html-keyboard-response","32","2.0.0","114827","5e41d41c6b5ac80775e6cd5c","2","8","null","","","","","","","","","<p style='font-size: 30px;'><strong>Okay</strong></p>","null","neutral_feedback","0","test","13","","","","","","","",""
"","","","","","","","","","","","html-button-response","33","2.0.0","116055","5e41d41c6b5ac80775e6cd5c","2","8","1227","","","","","","","","","<img src= ""rock_img/I_Obsidian_06.jpg"" style=""width:8cm; height:6.8cm;""><p>What type of rock is this?</p>","4","class_response","0","test","14","Obsidian","Obsidian","06","true","5","5","",""
"","","","","","","","","","","","html-keyboard-response","34","2.0.0","116569","5e41d41c6b5ac80775e6cd5c","2","8","null","","","","","","","","","<p style='font-size: 30px;'><strong>Okay</strong></p>","null","neutral_feedback","0","test","14","","","","","","","",""
"","","","","","","","","","","","html-button-response","35","2.0.0","117704","5e41d41c6b5ac80775e6cd5c","2","8","1133","","","","","","","","","<img src= ""rock_img/I_Obsidian_14.jpg"" style=""width:8cm; height:7.64cm;""><p>What type of rock is this?</p>","4","class_response","0","test","15","Obsidian","Obsidian","14","true","5","5","",""
"","","","","","","","","","","","html-keyboard-response","36","2.0.0","118213","5e41d41c6b5ac80775e6cd5c","2","8","null","","","","","","","","","<p style='font-size: 30px;'><strong>Okay</strong></p>","null","neutral_feedback","0","test","15","","","","","","","",""
"","","","","","","","","","","","html-button-response","37","2.0.0","122183","5e41d41c6b5ac80775e6cd5c","2","8","3970","","","","","","","","","<img src= ""rock_img/I_Diorite_14.jpg"" style=""width:8cm; height:5.71cm;""><p>What type of rock is this?</p>","3","class_response","0","test","16","Gabbro","Diorite","14","false","4","3","",""
"","","","","","","","","","","","html-keyboard-response","38","2.0.0","122685","5e41d41c6b5ac80775e6cd5c","2","8","null","","","","","","","","","<p style='font-size: 30px;'><strong>Okay</strong></p>","null","neutral_feedback","0","test","16","","","","","","","",""
"","","","","","","","","","","","html-button-response","39","2.0.0","125232","5e41d41c6b5ac80775e6cd5c","2","8","2546","","","","","","","","","<img src= ""rock_img/I_Basalt_04.jpg"" style=""width:8cm; height:7.53cm;""><p>What type of rock is this?</p>","1","class_response","0","test","17","Basalt","Basalt","04","true","2","2","",""
"","","","","","","","","","","","html-keyboard-response","40","2.0.0","125747","5e41d41c6b5ac80775e6cd5c","2","8","null","","","","","","","","","<p style='font-size: 30px;'><strong>Okay</strong></p>","null","neutral_feedback","0","test","17","","","","","","","",""
"","","","","","","","","","","","html-button-response","41","2.0.0","127767","5e41d41c6b5ac80775e6cd5c","2","8","2019","","","","","","","","","<img src= ""rock_img/I_Peridotite_10.jpg"" style=""width:8cm; height:5.390000000000001cm;""><p>What type of rock is this?</p>","0","class_response","0","test","18","Andesite","Peridotite","10","false","1","7","",""
"","","","","","","","","","","","html-keyboard-response","42","2.0.0","128277","5e41d41c6b5ac80775e6cd5c","2","8","null","","","","","","","","","<p style='font-size: 30px;'><strong>Okay</strong></p>","null","neutral_feedback","0","test","18","","","","","","","",""
"","","","","","","","","","","","html-button-response","43","2.0.0","130343","5e41d41c6b5ac80775e6cd5c","2","8","2065","","","","","","","","","<img src= ""rock_img/I_Obsidian_07.jpg"" style=""width:8cm; height:4.76cm;""><p>What type of rock is this?</p>","4","class_response","0","test","19","Obsidian","Obsidian","07","true","5","5","",""
"","","","","","","","","","","","html-keyboard-response","44","2.0.0","130854","5e41d41c6b5ac80775e6cd5c","2","8","null","","","","","","","","","<p style='font-size: 30px;'><strong>Okay</strong></p>","null","neutral_feedback","0","test","19","","","","","","","",""
"","","","","","","","","","","","html-button-response","45","2.0.0","131503","5e41d41c6b5ac80775e6cd5c","2","8","648","","","","","","","","","<img src= ""rock_img/I_Obsidian_11.jpg"" style=""width:8cm; height:6.05cm;""><p>What type of rock is this?</p>","4","class_response","0","test","20","Obsidian","Obsidian","11","true","5","5","",""
"","","","","","","","","","","","html-keyboard-response","46","2.0.0","132007","5e41d41c6b5ac80775e6cd5c","2","8","null","","","","","","","","","<p style='font-size: 30px;'><strong>Okay</strong></p>","null","neutral_feedback","0","test","20","","","","","","","",""
"","","","","","","","","","","","html-button-response","47","2.0.0","135031","5e41d41c6b5ac80775e6cd5c","2","8","3023","","","","","","","","","<img src= ""rock_img/I_Pegmatite_05.jpg"" style=""width:8cm; height:7.300000000000001cm;""><p>What type of rock is this?</p>","5","class_response","0","test","21","Pegmatite","Pegmatite","05","true","6","6","",""
"","","","","","","","","","","","html-keyboard-response","48","2.0.0","135540","5e41d41c6b5ac80775e6cd5c","2","8","null","","","","","","","","","<p style='font-size: 30px;'><strong>Okay</strong></p>","null","neutral_feedback","0","test","21","","","","","","","",""
"","","","","","","","","","","","html-button-response","49","2.0.0","137087","5e41d41c6b5ac80775e6cd5c","2","8","1545","","","","","","","","","<img src= ""rock_img/I_Gabbro_01.jpg"" style=""width:8cm; height:5.21cm;""><p>What type of rock is this?</p>","3","class_response","0","test","22","Gabbro","Gabbro","01","true","4","4","",""
"","","","","","","","","","","","html-keyboard-response","50","2.0.0","137598","5e41d41c6b5ac80775e6cd5c","2","8","null","","","","","","","","","<p style='font-size: 30px;'><strong>Okay</strong></p>","null","neutral_feedback","0","test","22","","","","","","","",""
"","","","","","","","","","","","html-button-response","51","2.0.0","142015","5e41d41c6b5ac80775e6cd5c","2","8","4416","","","","","","","","","<img src= ""rock_img/I_Peridotite_12.jpg"" style=""width:8cm; height:4.54cm;""><p>What type of rock is this?</p>","0","class_response","0","test","23","Andesite","Peridotite","12","false","1","7","",""
"","","","","","","","","","","","html-keyboard-response","52","2.0.0","142525","5e41d41c6b5ac80775e6cd5c","2","8","null","","","","","","","","","<p style='font-size: 30px;'><strong>Okay</strong></p>","null","neutral_feedback","0","test","23","","","","","","","",""
"","","","","","","","","","","","html-button-response","53","2.0.0","145919","5e41d41c6b5ac80775e6cd5c","2","8","3393","","","","","","","","","<img src= ""rock_img/I_Andesite_10.jpg"" style=""width:8cm; height:4.16cm;""><p>What type of rock is this?</p>","7","class_response","0","test","24","Pumice","Andesite","10","false","8","1","",""
"","","","","","","","","","","","html-keyboard-response","54","2.0.0","146431","5e41d41c6b5ac80775e6cd5c","2","8","null","","","","","","","","","<p style='font-size: 30px;'><strong>Okay</strong></p>","null","neutral_feedback","0","test","24","","","","","","","",""
"","","","","","","","","","","","html-button-response","55","2.0.0","147823","5e41d41c6b5ac80775e6cd5c","2","8","1391","","","","","","","","","<img src= ""rock_img/I_Pumice_09.jpg"" style=""width:8cm; height:6.44cm;""><p>What type of rock is this?</p>","7","class_response","0","test","25","Pumice","Pumice","09","true","8","8","",""
"","","","","","","","","","","","html-keyboard-response","56","2.0.0","148334","5e41d41c6b5ac80775e6cd5c","2","8","null","","","","","","","","","<p style='font-size: 30px;'><strong>Okay</strong></p>","null","neutral_feedback","0","test","25","","","","","","","",""
"","","","","","","","","","","","html-button-response","57","2.0.0","151304","5e41d41c6b5ac80775e6cd5c","2","8","2968","","","","","","","","","<img src= ""rock_img/I_Pumice_15.jpg"" style=""width:8cm; height:7.86cm;""><p>What type of rock is this?</p>","7","class_response","0","test","26","Pumice","Pumice","15","true","8","8","",""
"","","","","","","","","","","","html-keyboard-response","58","2.0.0","151820","5e41d41c6b5ac80775e6cd5c","2","8","null","","","","","","","","","<p style='font-size: 30px;'><strong>Okay</strong></p>","null","neutral_feedback","0","test","26","","","","","","","",""
"","","","","","","","","","","","html-button-response","59","2.0.0","155431","5e41d41c6b5ac80775e6cd5c","2","8","3610","","","","","","","","","<img src= ""rock_img/I_Pegmatite_16.jpg"" style=""width:8cm; height:5.8cm;""><p>What type of rock is this?</p>","0","class_response","0","test","27","Andesite","Pegmatite","16","false","1","6","",""
"","","","","","","","","","","","html-keyboard-response","60","2.0.0","155934","5e41d41c6b5ac80775e6cd5c","2","8","null","","","","","","","","","<p style='font-size: 30px;'><strong>Okay</strong></p>","null","neutral_feedback","0","test","27","","","","","","","",""
"","","","","","","","","","","","html-button-response","61","2.0.0","157343","5e41d41c6b5ac80775e6cd5c","2","8","1407","","","","","","","","","<img src= ""rock_img/I_Andesite_07.jpg"" style=""width:8cm; height:5.93cm;""><p>What type of rock is this?</p>","0","class_response","0","test","28","Andesite","Andesite","07","true","1","1","",""
"","","","","","","","","","","","html-keyboard-response","62","2.0.0","157851","5e41d41c6b5ac80775e6cd5c","2","8","null","","","","","","","","","<p style='font-size: 30px;'><strong>Okay</strong></p>","null","neutral_feedback","0","test","28","","","","","","","",""
"","","","","","","","","","","","html-button-response","63","2.0.0","159751","5e41d41c6b5ac80775e6cd5c","2","8","1899","","","","","","","","","<img src= ""rock_img/I_Diorite_16.jpg"" style=""width:8cm; height:6.74cm;""><p>What type of rock is this?</p>","2","class_response","0","test","29","Diorite","Diorite","16","true","3","3","",""
"","","","","","","","","","","","html-keyboard-response","64","2.0.0","160256","5e41d41c6b5ac80775e6cd5c","2","8","null","","","","","","","","","<p style='font-size: 30px;'><strong>Okay</strong></p>","null","neutral_feedback","0","test","29","","","","","","","",""
"","","","","","","","","","","","html-button-response","65","2.0.0","162225","5e41d41c6b5ac80775e6cd5c","2","8","1967","","","","","","","","","<img src= ""rock_img/I_Basalt_01.jpg"" style=""width:8cm; height:7.880000000000001cm;""><p>What type of rock is this?</p>","1","class_response","0","test","30","Basalt","Basalt","01","true","2","2","",""
"","","","","","","","","","","","html-keyboard-response","66","2.0.0","162739","5e41d41c6b5ac80775e6cd5c","2","8","null","","","","","","","","","<p style='font-size: 30px;'><strong>Okay</strong></p>","null","neutral_feedback","0","test","30","","","","","","","",""
"","","","","","","","","","","","html-button-response","67","2.0.0","164359","5e41d41c6b5ac80775e6cd5c","2","8","1619","","","","","","","","","<img src= ""rock_img/I_Peridotite_04.jpg"" style=""width:8cm; height:6.680000000000001cm;""><p>What type of rock is this?</p>","6","class_response","0","test","31","Peridotite","Peridotite","04","true","7","7","",""
"","","","","","","","","","","","html-keyboard-response","68","2.0.0","164864","5e41d41c6b5ac80775e6cd5c","2","8","null","","","","","","","","","<p style='font-size: 30px;'><strong>Okay</strong></p>","null","neutral_feedback","0","test","31","","","","","","","",""
"","","","","","","","","","","","html-button-response","69","2.0.0","166455","5e41d41c6b5ac80775e6cd5c","2","8","1589","","","","","","","","","<img src= ""rock_img/I_Andesite_05.jpg"" style=""width:8cm; height:4.12cm;""><p>What type of rock is this?</p>","6","class_response","0","test","32","Peridotite","Andesite","05","false","7","1","",""
"","","","","","","","","","","","html-keyboard-response","70","2.0.0","166972","5e41d41c6b5ac80775e6cd5c","2","8","null","","","","","","","","","<p style='font-size: 30px;'><strong>Okay</strong></p>","null","neutral_feedback","0","test","32","","","","","","","",""
"","","","","","","","","","","","html-button-response","71","2.0.0","167946","5e41d41c6b5ac80775e6cd5c","2","8","973","","","","","","","","","<img src= ""rock_img/I_Pumice_06.jpg"" style=""width:8cm; height:6.9399999999999995cm;""><p>What type of rock is this?</p>","7","class_response","0","test","33","Pumice","Pumice","06","true","8","8","",""
"","","","","","","","","","","","html-keyboard-response","72","2.0.0","168456","5e41d41c6b5ac80775e6cd5c","2","8","null","","","","","","","","","<p style='font-size: 30px;'><strong>Okay</strong></p>","null","neutral_feedback","0","test","33","","","","","","","",""
"","","","","","","","","","","","html-button-response","73","2.0.0","169383","5e41d41c6b5ac80775e6cd5c","2","8","927","","","","","","","","","<img src= ""rock_img/I_Obsidian_09.jpg"" style=""width:8cm; height:5cm;""><p>What type of rock is this?</p>","4","class_response","0","test","34","Obsidian","Obsidian","09","true","5","5","",""
"","","","","","","","","","","","html-keyboard-response","74","2.0.0","169893","5e41d41c6b5ac80775e6cd5c","2","8","null","","","","","","","","","<p style='font-size: 30px;'><strong>Okay</strong></p>","null","neutral_feedback","0","test","34","","","","","","","",""
"","","","","","","","","","","","html-button-response","75","2.0.0","170943","5e41d41c6b5ac80775e6cd5c","2","8","1048","","","","","","","","","<img src= ""rock_img/I_Obsidian_05.jpg"" style=""width:8cm; height:6.33cm;""><p>What type of rock is this?</p>","4","class_response","0","test","35","Obsidian","Obsidian","05","true","5","5","",""
"","","","","","","","","","","","html-keyboard-response","76","2.0.0","171445","5e41d41c6b5ac80775e6cd5c","2","8","null","","","","","","","","","<p style='font-size: 30px;'><strong>Okay</strong></p>","null","neutral_feedback","0","test","35","","","","","","","",""
"","","","","","","","","","","","html-button-response","77","2.0.0","172863","5e41d41c6b5ac80775e6cd5c","2","8","1417","","","","","","","","","<img src= ""rock_img/I_Diorite_02.jpg"" style=""width:8cm; height:6.27cm;""><p>What type of rock is this?</p>","2","class_response","0","test","36","Diorite","Diorite","02","true","3","3","",""
"","","","","","","","","","","","html-keyboard-response","78","2.0.0","173366","5e41d41c6b5ac80775e6cd5c","2","8","null","","","","","","","","","<p style='font-size: 30px;'><strong>Okay</strong></p>","null","neutral_feedback","0","test","36","","","","","","","",""
"","","","","","","","","","","","html-button-response","79","2.0.0","174423","5e41d41c6b5ac80775e6cd5c","2","8","1056","","","","","","","","","<img src= ""rock_img/I_Basalt_11.jpg"" style=""width:8cm; height:5.359999999999999cm;""><p>What type of rock is this?</p>","1","class_response","0","test","37","Basalt","Basalt","11","true","2","2","",""
"","","","","","","","","","","","html-keyboard-response","80","2.0.0","174925","5e41d41c6b5ac80775e6cd5c","2","8","null","","","","","","","","","<p style='font-size: 30px;'><strong>Okay</strong></p>","null","neutral_feedback","0","test","37","","","","","","","",""
"","","","","","","","","","","","html-button-response","81","2.0.0","177503","5e41d41c6b5ac80775e6cd5c","2","8","2577","","","","","","","","","<img src= ""rock_img/I_Peridotite_14.jpg"" style=""width:8cm; height:5.3cm;""><p>What type of rock is this?</p>","6","class_response","0","test","38","Peridotite","Peridotite","14","true","7","7","",""
"","","","","","","","","","","","html-keyboard-response","82","2.0.0","178018","5e41d41c6b5ac80775e6cd5c","2","8","null","","","","","","","","","<p style='font-size: 30px;'><strong>Okay</strong></p>","null","neutral_feedback","0","test","38","","","","","","","",""
"","","","","","","","","","","","html-button-response","83","2.0.0","179343","5e41d41c6b5ac80775e6cd5c","2","8","1324","","","","","","","","","<img src= ""rock_img/I_Gabbro_03.jpg"" style=""width:8cm; height:8.52cm;""><p>What type of rock is this?</p>","5","class_response","0","test","39","Pegmatite","Gabbro","03","false","6","4","",""
"","","","","","","","","","","","html-keyboard-response","84","2.0.0","179848","5e41d41c6b5ac80775e6cd5c","2","8","null","","","","","","","","","<p style='font-size: 30px;'><strong>Okay</strong></p>","null","neutral_feedback","0","test","39","","","","","","","",""
"","","","","","","","","","","","html-button-response","85","2.0.0","181712","5e41d41c6b5ac80775e6cd5c","2","8","1862","","","","","","","","","<img src= ""rock_img/I_Andesite_04.jpg"" style=""width:8cm; height:5.96cm;""><p>What type of rock is this?</p>","0","class_response","0","test","40","Andesite","Andesite","04","true","1","1","",""
"","","","","","","","","","","","html-keyboard-response","86","2.0.0","182227","5e41d41c6b5ac80775e6cd5c","2","8","null","","","","","","","","","<p style='font-size: 30px;'><strong>Okay</strong></p>","null","neutral_feedback","0","test","40","","","","","","","",""
"","","","","","","","","","","","html-button-response","87","2.0.0","185776","5e41d41c6b5ac80775e6cd5c","2","8","3547","","","","","","","","","<img src= ""rock_img/I_Gabbro_16.jpg"" style=""width:8cm; height:6.44cm;""><p>What type of rock is this?</p>","1","class_response","0","test","41","Basalt","Gabbro","16","false","2","4","",""
"","","","","","","","","","","","html-keyboard-response","88","2.0.0","186277","5e41d41c6b5ac80775e6cd5c","2","8","null","","","","","","","","","<p style='font-size: 30px;'><strong>Okay</strong></p>","null","neutral_feedback","0","test","41","","","","","","","",""
"","","","","","","","","","","","html-button-response","89","2.0.0","192135","5e41d41c6b5ac80775e6cd5c","2","8","5857","","","","","","","","","<img src= ""rock_img/I_Basalt_05.jpg"" style=""width:8cm; height:8.18cm;""><p>What type of rock is this?</p>","1","class_response","0","test","42","Basalt","Basalt","05","true","2","2","",""
"","","","","","","","","","","","html-keyboard-response","90","2.0.0","192640","5e41d41c6b5ac80775e6cd5c","2","8","null","","","","","","","","","<p style='font-size: 30px;'><strong>Okay</strong></p>","null","neutral_feedback","0","test","42","","","","","","","",""
"","","","","","","","","","","","html-button-response","91","2.0.0","194535","5e41d41c6b5ac80775e6cd5c","2","8","1894","","","","","","","","","<img src= ""rock_img/I_Peridotite_16.jpg"" style=""width:8cm; height:6.989999999999999cm;""><p>What type of rock is this?</p>","2","class_response","0","test","43","Diorite","Peridotite","16","false","3","7","",""
"","","","","","","","","","","","html-keyboard-response","92","2.0.0","195045","5e41d41c6b5ac80775e6cd5c","2","8","null","","","","","","","","","<p style='font-size: 30px;'><strong>Okay</strong></p>","null","neutral_feedback","0","test","43","","","","","","","",""
"","","","","","","","","","","","html-button-response","93","2.0.0","196023","5e41d41c6b5ac80775e6cd5c","2","8","977","","","","","","","","","<img src= ""rock_img/I_Pumice_03.jpg"" style=""width:8cm; height:6.64cm;""><p>What type of rock is this?</p>","7","class_response","0","test","44","Pumice","Pumice","03","true","8","8","",""
"","","","","","","","","","","","html-keyboard-response","94","2.0.0","196527","5e41d41c6b5ac80775e6cd5c","2","8","null","","","","","","","","","<p style='font-size: 30px;'><strong>Okay</strong></p>","null","neutral_feedback","0","test","44","","","","","","","",""
"","","","","","","","","","","","html-button-response","95","2.0.0","203471","5e41d41c6b5ac80775e6cd5c","2","8","6943","","","","","","","","","<img src= ""rock_img/I_Andesite_01.jpg"" style=""width:8cm; height:5.87cm;""><p>What type of rock is this?</p>","3","class_response","0","test","45","Gabbro","Andesite","01","false","4","1","",""
"","","","","","","","","","","","html-keyboard-response","96","2.0.0","203977","5e41d41c6b5ac80775e6cd5c","2","8","null","","","","","","","","","<p style='font-size: 30px;'><strong>Okay</strong></p>","null","neutral_feedback","0","test","45","","","","","","","",""
"","","","","","","","","","","","html-button-response","97","2.0.0","206143","5e41d41c6b5ac80775e6cd5c","2","8","2165","","","","","","","","","<img src= ""rock_img/I_Basalt_02.jpg"" style=""width:8cm; height:6.45cm;""><p>What type of rock is this?</p>","3","class_response","0","test","46","Gabbro","Basalt","02","false","4","2","",""
"","","","","","","","","","","","html-keyboard-response","98","2.0.0","206653","5e41d41c6b5ac80775e6cd5c","2","8","null","","","","","","","","","<p style='font-size: 30px;'><strong>Okay</strong></p>","null","neutral_feedback","0","test","46","","","","","","","",""
"","","","","","","","","","","","html-button-response","99","2.0.0","208551","5e41d41c6b5ac80775e6cd5c","2","8","1897","","","","","","","","","<img src= ""rock_img/I_Diorite_06.jpg"" style=""width:8cm; height:6.03cm;""><p>What type of rock is this?</p>","2","class_response","0","test","47","Diorite","Diorite","06","true","3","3","",""
"","","","","","","","","","","","html-keyboard-response","100","2.0.0","209055","5e41d41c6b5ac80775e6cd5c","2","8","null","","","","","","","","","<p style='font-size: 30px;'><strong>Okay</strong></p>","null","neutral_feedback","0","test","47","","","","","","","",""
"","","","","","","","","","","","html-button-response","101","2.0.0","211399","5e41d41c6b5ac80775e6cd5c","2","8","2343","","","","","","","","","<img src= ""rock_img/I_Pegmatite_06.jpg"" style=""width:8cm; height:5.17cm;""><p>What type of rock is this?</p>","6","class_response","0","test","48","Peridotite","Pegmatite","06","false","7","6","",""
"","","","","","","","","","","","html-keyboard-response","102","2.0.0","211912","5e41d41c6b5ac80775e6cd5c","2","8","null","","","","","","","","","<p style='font-size: 30px;'><strong>Okay</strong></p>","null","neutral_feedback","0","test","48","","","","","","","",""
"","","","","","","","","","","","instructions","103","2.0.0","243760","5e41d41c6b5ac80775e6cd5c","2","8","31827","","","","","","","","[{""page_index"":0,""viewing_time"":20740},{""page_index"":1,""viewing_time"":6856},{""page_index"":2,""viewing_time"":4232}]","","","","","","","","","","","","","",""
"","","","","","","","","","","","html-button-response","104","2.0.0","246392","5e41d41c6b5ac80775e6cd5c","2","8","2631","","","","","","","","","","0","start_train","","","","","","","","","","",""
"","","","","","","","","","","","html-button-response","105","2.0.0","250169","5e41d41c6b5ac80775e6cd5c","2","8","3775","","","","","","","","","<img src= ""rock_img/I_Peridotite_06.jpg"" style=""width:8cm; height:7.53cm;""><p>What type of rock is this?</p>","2","class_response","1","train","1","Diorite","Peridotite","06","false","3","7","",""
"","","","","","","","","","","","html-button-response","106","2.0.0","254016","5e41d41c6b5ac80775e6cd5c","2","8","3846","","","","","","","","","<img src= rock_img/I_Peridotite_06.jpg style=""width:8cm; height:7.53cm;""><p style='font-size: 30px; color: red;'><strong>Incorrect!</strong></p><p style='font-size: 30px;'><strong>This rock is peridotite</strong></p>","0","corr_feedback","1","train","1","","","","","","","",""
"","","","","","","","","","","","html-button-response","107","2.0.0","259505","5e41d41c6b5ac80775e6cd5c","2","8","5488","","","","","","","","","<img src= ""rock_img/I_Andesite_03.jpg"" style=""width:8cm; height:5.73cm;""><p>What type of rock is this?</p>","0","class_response","1","train","2","Andesite","Andesite","03","true","1","1","",""
"","","","","","","","","","","","html-button-response","108","2.0.0","262168","5e41d41c6b5ac80775e6cd5c","2","8","2662","","","","","","","","","<img src= rock_img/I_Andesite_03.jpg style=""width:8cm; height:5.73cm;""><p style='font-size: 30px; color: green;'><strong>Correct!</strong></p><p style='font-size: 30px;'><strong>This rock is andesite</strong></p>","0","corr_feedback","1","train","2","","","","","","","",""
"","","","","","","","","","","","html-button-response","109","2.0.0","268984","5e41d41c6b5ac80775e6cd5c","2","8","6815","","","","","","","","","<img src= ""rock_img/I_Pegmatite_12.jpg"" style=""width:8cm; height:5.7cm;""><p>What type of rock is this?</p>","2","class_response","1","train","3","Diorite","Pegmatite","12","false","3","6","",""
"","","","","","","","","","","","html-button-response","110","2.0.0","271312","5e41d41c6b5ac80775e6cd5c","2","8","2327","","","","","","","","","<img src= rock_img/I_Pegmatite_12.jpg style=""width:8cm; height:5.7cm;""><p style='font-size: 30px; color: red;'><strong>Incorrect!</strong></p><p style='font-size: 30px;'><strong>This rock is pegmatite</strong></p>","0","corr_feedback","1","train","3","","","","","","","",""
"","","","","","","","","","","","html-button-response","111","2.0.0","272496","5e41d41c6b5ac80775e6cd5c","2","8","1183","","","","","","","","","<img src= ""rock_img/I_Peridotite_02.jpg"" style=""width:8cm; height:5.859999999999999cm;""><p>What type of rock is this?</p>","2","class_response","1","train","4","Diorite","Peridotite","02","false","3","7","",""
"","","","","","","","","","","","html-button-response","112","2.0.0","274264","5e41d41c6b5ac80775e6cd5c","2","8","1767","","","","","","","","","<img src= rock_img/I_Peridotite_02.jpg style=""width:8cm; height:5.859999999999999cm;""><p style='font-size: 30px; color: red;'><strong>Incorrect!</strong></p><p style='font-size: 30px;'><strong>This rock is peridotite</strong></p>","0","corr_feedback","1","train","4","","","","","","","",""
"","","","","","","","","","","","html-button-response","113","2.0.0","277656","5e41d41c6b5ac80775e6cd5c","2","8","3392","","","","","","","","","<img src= ""rock_img/I_Pegmatite_15.jpg"" style=""width:8cm; height:6cm;""><p>What type of rock is this?</p>","2","class_response","1","train","5","Diorite","Pegmatite","15","false","3","6","",""
"","","","","","","","","","","","html-button-response","114","2.0.0","279296","5e41d41c6b5ac80775e6cd5c","2","8","1638","","","","","","","","","<img src= rock_img/I_Pegmatite_15.jpg style=""width:8cm; height:6cm;""><p style='font-size: 30px; color: red;'><strong>Incorrect!</strong></p><p style='font-size: 30px;'><strong>This rock is pegmatite</strong></p>","0","corr_feedback","1","train","5","","","","","","","",""
"","","","","","","","","","","","html-button-response","115","2.0.0","280976","5e41d41c6b5ac80775e6cd5c","2","8","1679","","","","","","","","","<img src= ""rock_img/I_Peridotite_15.jpg"" style=""width:8cm; height:6cm;""><p>What type of rock is this?</p>","5","class_response","1","train","6","Pegmatite","Peridotite","15","false","6","7","",""
"","","","","","","","","","","","html-button-response","116","2.0.0","282479","5e41d41c6b5ac80775e6cd5c","2","8","1502","","","","","","","","","<img src= rock_img/I_Peridotite_15.jpg style=""width:8cm; height:6cm;""><p style='font-size: 30px; color: red;'><strong>Incorrect!</strong></p><p style='font-size: 30px;'><strong>This rock is peridotite</strong></p>","0","corr_feedback","1","train","6","","","","","","","",""
"","","","","","","","","","","","html-button-response","117","2.0.0","284295","5e41d41c6b5ac80775e6cd5c","2","8","1815","","","","","","","","","<img src= ""rock_img/I_Pumice_16.jpg"" style=""width:8cm; height:6.79cm;""><p>What type of rock is this?</p>","1","class_response","1","train","7","Basalt","Pumice","16","false","2","8","",""
"","","","","","","","","","","","html-button-response","118","2.0.0","285951","5e41d41c6b5ac80775e6cd5c","2","8","1655","","","","","","","","","<img src= rock_img/I_Pumice_16.jpg style=""width:8cm; height:6.79cm;""><p style='font-size: 30px; color: red;'><strong>Incorrect!</strong></p><p style='font-size: 30px;'><strong>This rock is pumice</strong></p>","0","corr_feedback","1","train","7","","","","","","","",""
"","","","","","","","","","","","html-button-response","119","2.0.0","287272","5e41d41c6b5ac80775e6cd5c","2","8","1319","","","","","","","","","<img src= ""rock_img/I_Gabbro_10.jpg"" style=""width:8cm; height:5.680000000000001cm;""><p>What type of rock is this?</p>","1","class_response","1","train","8","Basalt","Gabbro","10","false","2","4","",""
"","","","","","","","","","","","html-button-response","120","2.0.0","288664","5e41d41c6b5ac80775e6cd5c","2","8","1391","","","","","","","","","<img src= rock_img/I_Gabbro_10.jpg style=""width:8cm; height:5.680000000000001cm;""><p style='font-size: 30px; color: red;'><strong>Incorrect!</strong></p><p style='font-size: 30px;'><strong>This rock is gabbro</strong></p>","0","corr_feedback","1","train","8","","","","","","","",""
"","","","","","","","","","","","html-button-response","121","2.0.0","291984","5e41d41c6b5ac80775e6cd5c","2","8","3319","","","","","","","","","<img src= ""rock_img/I_Andesite_06.jpg"" style=""width:8cm; height:6.840000000000001cm;""><p>What type of rock is this?</p>","3","class_response","1","train","9","Gabbro","Andesite","06","false","4","1","",""
"","","","","","","","","","","","html-button-response","122","2.0.0","292984","5e41d41c6b5ac80775e6cd5c","2","8","999","","","","","","","","","<img src= rock_img/I_Andesite_06.jpg style=""width:8cm; height:6.840000000000001cm;""><p style='font-size: 30px; color: red;'><strong>Incorrect!</strong></p><p style='font-size: 30px;'><strong>This rock is andesite</strong></p>","0","corr_feedback","1","train","9","","","","","","","",""
"","","","","","","","","","","","html-button-response","123","2.0.0","294488","5e41d41c6b5ac80775e6cd5c","2","8","1504","","","","","","","","","<img src= ""rock_img/I_Gabbro_09.jpg"" style=""width:8cm; height:7.279999999999999cm;""><p>What type of rock is this?</p>","1","class_response","1","train","10","Basalt","Gabbro","09","false","2","4","",""
"","","","","","","","","","","","html-button-response","124","2.0.0","295727","5e41d41c6b5ac80775e6cd5c","2","8","1238","","","","","","","","","<img src= rock_img/I_Gabbro_09.jpg style=""width:8cm; height:7.279999999999999cm;""><p style='font-size: 30px; color: red;'><strong>Incorrect!</strong></p><p style='font-size: 30px;'><strong>This rock is gabbro</strong></p>","0","corr_feedback","1","train","10","","","","","","","",""
"","","","","","","","","","","","html-button-response","125","2.0.0","297384","5e41d41c6b5ac80775e6cd5c","2","8","1655","","","","","","","","","<img src= ""rock_img/I_Gabbro_12.jpg"" style=""width:8cm; height:7.800000000000001cm;""><p>What type of rock is this?</p>","1","class_response","1","train","11","Basalt","Gabbro","12","false","2","4","",""
"","","","","","","","","","","","html-button-response","126","2.0.0","298496","5e41d41c6b5ac80775e6cd5c","2","8","1111","","","","","","","","","<img src= rock_img/I_Gabbro_12.jpg style=""width:8cm; height:7.800000000000001cm;""><p style='font-size: 30px; color: red;'><strong>Incorrect!</strong></p><p style='font-size: 30px;'><strong>This rock is gabbro</strong></p>","0","corr_feedback","1","train","11","","","","","","","",""
"","","","","","","","","","","","html-button-response","127","2.0.0","301639","5e41d41c6b5ac80775e6cd5c","2","8","3142","","","","","","","","","<img src= ""rock_img/I_Diorite_15.jpg"" style=""width:8cm; height:5.54cm;""><p>What type of rock is this?</p>","2","class_response","1","train","12","Diorite","Diorite","15","true","3","3","",""
"","","","","","","","","","","","html-button-response","128","2.0.0","302728","5e41d41c6b5ac80775e6cd5c","2","8","1088","","","","","","","","","<img src= rock_img/I_Diorite_15.jpg style=""width:8cm; height:5.54cm;""><p style='font-size: 30px; color: green;'><strong>Correct!</strong></p><p style='font-size: 30px;'><strong>This rock is diorite</strong></p>","0","corr_feedback","1","train","12","","","","","","","",""
"","","","","","","","","","","","html-button-response","129","2.0.0","305048","5e41d41c6b5ac80775e6cd5c","2","8","2318","","","","","","","","","<img src= ""rock_img/I_Andesite_11.jpg"" style=""width:8cm; height:4.92cm;""><p>What type of rock is this?</p>","0","class_response","1","train","13","Andesite","Andesite","11","true","1","1","",""
"","","","","","","","","","","","html-button-response","130","2.0.0","306008","5e41d41c6b5ac80775e6cd5c","2","8","960","","","","","","","","","<img src= rock_img/I_Andesite_11.jpg style=""width:8cm; height:4.92cm;""><p style='font-size: 30px; color: green;'><strong>Correct!</strong></p><p style='font-size: 30px;'><strong>This rock is andesite</strong></p>","0","corr_feedback","1","train","13","","","","","","","",""
"","","","","","","","","","","","html-button-response","131","2.0.0","309200","5e41d41c6b5ac80775e6cd5c","2","8","3190","","","","","","","","","<img src= ""rock_img/I_Gabbro_15.jpg"" style=""width:8cm; height:6.29cm;""><p>What type of rock is this?</p>","3","class_response","1","train","14","Gabbro","Gabbro","15","true","4","4","",""
"","","","","","","","","","","","html-button-response","132","2.0.0","309968","5e41d41c6b5ac80775e6cd5c","2","8","767","","","","","","","","","<img src= rock_img/I_Gabbro_15.jpg style=""width:8cm; height:6.29cm;""><p style='font-size: 30px; color: green;'><strong>Correct!</strong></p><p style='font-size: 30px;'><strong>This rock is gabbro</strong></p>","0","corr_feedback","1","train","14","","","","","","","",""
"","","","","","","","","","","","html-button-response","133","2.0.0","316847","5e41d41c6b5ac80775e6cd5c","2","8","6879","","","","","","","","","<img src= ""rock_img/I_Peridotite_07.jpg"" style=""width:8cm; height:4.83cm;""><p>What type of rock is this?</p>","2","class_response","1","train","15","Diorite","Peridotite","07","false","3","7","",""
"","","","","","","","","","","","html-button-response","134","2.0.0","317705","5e41d41c6b5ac80775e6cd5c","2","8","856","","","","","","","","","<img src= rock_img/I_Peridotite_07.jpg style=""width:8cm; height:4.83cm;""><p style='font-size: 30px; color: red;'><strong>Incorrect!</strong></p><p style='font-size: 30px;'><strong>This rock is peridotite</strong></p>","0","corr_feedback","1","train","15","","","","","","","",""
"","","","","","","","","","","","html-button-response","135","2.0.0","319344","5e41d41c6b5ac80775e6cd5c","2","8","1638","","","","","","","","","<img src= ""rock_img/I_Pegmatite_08.jpg"" style=""width:8cm; height:7.68cm;""><p>What type of rock is this?</p>","5","class_response","1","train","16","Pegmatite","Pegmatite","08","true","6","6","",""
"","","","","","","","","","","","html-button-response","136","2.0.0","320039","5e41d41c6b5ac80775e6cd5c","2","8","695","","","","","","","","","<img src= rock_img/I_Pegmatite_08.jpg style=""width:8cm; height:7.68cm;""><p style='font-size: 30px; color: green;'><strong>Correct!</strong></p><p style='font-size: 30px;'><strong>This rock is pegmatite</strong></p>","0","corr_feedback","1","train","16","","","","","","","",""
"","","","","","","","","","","","html-button-response","137","2.0.0","322384","5e41d41c6b5ac80775e6cd5c","2","8","2344","","","","","","","","","<img src= ""rock_img/I_Andesite_09.jpg"" style=""width:8cm; height:6cm;""><p>What type of rock is this?</p>","6","class_response","1","train","17","Peridotite","Andesite","09","false","7","1","",""
"","","","","","","","","","","","html-button-response","138","2.0.0","323095","5e41d41c6b5ac80775e6cd5c","2","8","710","","","","","","","","","<img src= rock_img/I_Andesite_09.jpg style=""width:8cm; height:6cm;""><p style='font-size: 30px; color: red;'><strong>Incorrect!</strong></p><p style='font-size: 30px;'><strong>This rock is andesite</strong></p>","0","corr_feedback","1","train","17","","","","","","","",""
"","","","","","","","","","","","html-button-response","139","2.0.0","324232","5e41d41c6b5ac80775e6cd5c","2","8","1135","","","","","","","","","<img src= ""rock_img/I_Pumice_02.jpg"" style=""width:8cm; height:7.3999999999999995cm;""><p>What type of rock is this?</p>","7","class_response","1","train","18","Pumice","Pumice","02","true","8","8","",""
"","","","","","","","","","","","html-button-response","140","2.0.0","324879","5e41d41c6b5ac80775e6cd5c","2","8","647","","","","","","","","","<img src= rock_img/I_Pumice_02.jpg style=""width:8cm; height:7.3999999999999995cm;""><p style='font-size: 30px; color: green;'><strong>Correct!</strong></p><p style='font-size: 30px;'><strong>This rock is pumice</strong></p>","0","corr_feedback","1","train","18","","","","","","","",""
"","","","","","","","","","","","html-button-response","141","2.0.0","328040","5e41d41c6b5ac80775e6cd5c","2","8","3159","","","","","","","","","<img src= ""rock_img/I_Peridotite_15.jpg"" style=""width:8cm; height:6cm;""><p>What type of rock is this?</p>","6","class_response","1","train","19","Peridotite","Peridotite","15","true","7","7","",""
"","","","","","","","","","","","html-button-response","142","2.0.0","328648","5e41d41c6b5ac80775e6cd5c","2","8","607","","","","","","","","","<img src= rock_img/I_Peridotite_15.jpg style=""width:8cm; height:6cm;""><p style='font-size: 30px; color: green;'><strong>Correct!</strong></p><p style='font-size: 30px;'><strong>This rock is peridotite</strong></p>","0","corr_feedback","1","train","19","","","","","","","",""
"","","","","","","","","","","","html-button-response","143","2.0.0","330368","5e41d41c6b5ac80775e6cd5c","2","8","1719","","","","","","","","","<img src= ""rock_img/I_Andesite_14.jpg"" style=""width:8cm; height:5.449999999999999cm;""><p>What type of rock is this?</p>","5","class_response","1","train","20","Pegmatite","Andesite","14","false","6","1","",""
"","","","","","","","","","","","html-button-response","144","2.0.0","331223","5e41d41c6b5ac80775e6cd5c","2","8","855","","","","","","","","","<img src= rock_img/I_Andesite_14.jpg style=""width:8cm; height:5.449999999999999cm;""><p style='font-size: 30px; color: red;'><strong>Incorrect!</strong></p><p style='font-size: 30px;'><strong>This rock is andesite</strong></p>","0","corr_feedback","1","train","20","","","","","","","",""
"","","","","","","","","","","","html-button-response","145","2.0.0","333456","5e41d41c6b5ac80775e6cd5c","2","8","2231","","","","","","","","","<img src= ""rock_img/I_Peridotite_08.jpg"" style=""width:8cm; height:6.7cm;""><p>What type of rock is this?</p>","2","class_response","1","train","21","Diorite","Peridotite","08","false","3","7","",""
"","","","","","","","","","","","html-button-response","146","2.0.0","334223","5e41d41c6b5ac80775e6cd5c","2","8","767","","","","","","","","","<img src= rock_img/I_Peridotite_08.jpg style=""width:8cm; height:6.7cm;""><p style='font-size: 30px; color: red;'><strong>Incorrect!</strong></p><p style='font-size: 30px;'><strong>This rock is peridotite</strong></p>","0","corr_feedback","1","train","21","","","","","","","",""
"","","","","","","","","","","","html-button-response","147","2.0.0","338112","5e41d41c6b5ac80775e6cd5c","2","8","3887","","","","","","","","","<img src= ""rock_img/I_Andesite_02.jpg"" style=""width:8cm; height:8.5cm;""><p>What type of rock is this?</p>","6","class_response","1","train","22","Peridotite","Andesite","02","false","7","1","",""
"","","","","","","","","","","","html-button-response","148","2.0.0","338904","5e41d41c6b5ac80775e6cd5c","2","8","791","","","","","","","","","<img src= rock_img/I_Andesite_02.jpg style=""width:8cm; height:8.5cm;""><p style='font-size: 30px; color: red;'><strong>Incorrect!</strong></p><p style='font-size: 30px;'><strong>This rock is andesite</strong></p>","0","corr_feedback","1","train","22","","","","","","","",""
"","","","","","","","","","","","html-button-response","149","2.0.0","340599","5e41d41c6b5ac80775e6cd5c","2","8","1695","","","","","","","","","<img src= ""rock_img/I_Diorite_12.jpg"" style=""width:8cm; height:4.88cm;""><p>What type of rock is this?</p>","6","class_response","1","train","23","Peridotite","Diorite","12","false","7","3","",""
"","","","","","","","","","","","html-button-response","150","2.0.0","341367","5e41d41c6b5ac80775e6cd5c","2","8","767","","","","","","","","","<img src= rock_img/I_Diorite_12.jpg style=""width:8cm; height:4.88cm;""><p style='font-size: 30px; color: red;'><strong>Incorrect!</strong></p><p style='font-size: 30px;'><strong>This rock is diorite</strong></p>","0","corr_feedback","1","train","23","","","","","","","",""
"","","","","","","","","","","","html-button-response","151","2.0.0","342895","5e41d41c6b5ac80775e6cd5c","2","8","1527","","","","","","","","","<img src= ""rock_img/I_Basalt_12.jpg"" style=""width:8cm; height:6.010000000000001cm;""><p>What type of rock is this?</p>","1","class_response","1","train","24","Basalt","Basalt","12","true","2","2","",""
"","","","","","","","","","","","html-button-response","152","2.0.0","343512","5e41d41c6b5ac80775e6cd5c","2","8","615","","","","","","","","","<img src= rock_img/I_Basalt_12.jpg style=""width:8cm; height:6.010000000000001cm;""><p style='font-size: 30px; color: green;'><strong>Correct!</strong></p><p style='font-size: 30px;'><strong>This rock is basalt</strong></p>","0","corr_feedback","1","train","24","","","","","","","",""
"","","","","","","","","","","","html-button-response","153","2.0.0","345183","5e41d41c6b5ac80775e6cd5c","2","8","1671","","","","","","","","","<img src= ""rock_img/I_Andesite_14.jpg"" style=""width:8cm; height:5.449999999999999cm;""><p>What type of rock is this?</p>","5","class_response","1","train","25","Pegmatite","Andesite","14","false","6","1","",""
"","","","","","","","","","","","html-button-response","154","2.0.0","346064","5e41d41c6b5ac80775e6cd5c","2","8","879","","","","","","","","","<img src= rock_img/I_Andesite_14.jpg style=""width:8cm; height:5.449999999999999cm;""><p style='font-size: 30px; color: red;'><strong>Incorrect!</strong></p><p style='font-size: 30px;'><strong>This rock is andesite</strong></p>","0","corr_feedback","1","train","25","","","","","","","",""
"","","","","","","","","","","","html-button-response","155","2.0.0","347248","5e41d41c6b5ac80775e6cd5c","2","8","1183","","","","","","","","","<img src= ""rock_img/I_Basalt_09.jpg"" style=""width:8cm; height:6.2cm;""><p>What type of rock is this?</p>","1","class_response","1","train","26","Basalt","Basalt","09","true","2","2","",""
"","","","","","","","","","","","html-button-response","156","2.0.0","347855","5e41d41c6b5ac80775e6cd5c","2","8","606","","","","","","","","","<img src= rock_img/I_Basalt_09.jpg style=""width:8cm; height:6.2cm;""><p style='font-size: 30px; color: green;'><strong>Correct!</strong></p><p style='font-size: 30px;'><strong>This rock is basalt</strong></p>","0","corr_feedback","1","train","26","","","","","","","",""
"","","","","","","","","","","","html-button-response","157","2.0.0","349056","5e41d41c6b5ac80775e6cd5c","2","8","1199","","","","","","","","","<img src= ""rock_img/I_Andesite_09.jpg"" style=""width:8cm; height:6cm;""><p>What type of rock is this?</p>","3","class_response","1","train","27","Gabbro","Andesite","09","false","4","1","",""
"","","","","","","","","","","","html-button-response","158","2.0.0","349856","5e41d41c6b5ac80775e6cd5c","2","8","799","","","","","","","","","<img src= rock_img/I_Andesite_09.jpg style=""width:8cm; height:6cm;""><p style='font-size: 30px; color: red;'><strong>Incorrect!</strong></p><p style='font-size: 30px;'><strong>This rock is andesite</strong></p>","0","corr_feedback","1","train","27","","","","","","","",""
"","","","","","","","","","","","html-button-response","159","2.0.0","351337","5e41d41c6b5ac80775e6cd5c","2","8","1480","","","","","","","","","<img src= ""rock_img/I_Pegmatite_03.jpg"" style=""width:8cm; height:5.239999999999999cm;""><p>What type of rock is this?</p>","6","class_response","1","train","28","Peridotite","Pegmatite","03","false","7","6","",""
"","","","","","","","","","","","html-button-response","160","2.0.0","352111","5e41d41c6b5ac80775e6cd5c","2","8","773","","","","","","","","","<img src= rock_img/I_Pegmatite_03.jpg style=""width:8cm; height:5.239999999999999cm;""><p style='font-size: 30px; color: red;'><strong>Incorrect!</strong></p><p style='font-size: 30px;'><strong>This rock is pegmatite</strong></p>","0","corr_feedback","1","train","28","","","","","","","",""
"","","","","","","","","","","","html-button-response","161","2.0.0","353488","5e41d41c6b5ac80775e6cd5c","2","8","1376","","","","","","","","","<img src= ""rock_img/I_Gabbro_11.jpg"" style=""width:8cm; height:6.2cm;""><p>What type of rock is this?</p>","1","class_response","1","train","29","Basalt","Gabbro","11","false","2","4","",""
"","","","","","","","","","","","html-button-response","162","2.0.0","354248","5e41d41c6b5ac80775e6cd5c","2","8","759","","","","","","","","","<img src= rock_img/I_Gabbro_11.jpg style=""width:8cm; height:6.2cm;""><p style='font-size: 30px; color: red;'><strong>Incorrect!</strong></p><p style='font-size: 30px;'><strong>This rock is gabbro</strong></p>","0","corr_feedback","1","train","29","","","","","","","",""
"","","","","","","","","","","","html-button-response","163","2.0.0","358031","5e41d41c6b5ac80775e6cd5c","2","8","3782","","","","","","","","","<img src= ""rock_img/I_Diorite_09.jpg"" style=""width:8cm; height:5.27cm;""><p>What type of rock is this?</p>","2","class_response","1","train","30","Diorite","Diorite","09","true","3","3","",""
"","","","","","","","","","","","html-button-response","164","2.0.0","358711","5e41d41c6b5ac80775e6cd5c","2","8","679","","","","","","","","","<img src= rock_img/I_Diorite_09.jpg style=""width:8cm; height:5.27cm;""><p style='font-size: 30px; color: green;'><strong>Correct!</strong></p><p style='font-size: 30px;'><strong>This rock is diorite</strong></p>","0","corr_feedback","1","train","30","","","","","","","",""
"","","","","","","","","","","","html-button-response","165","2.0.0","365064","5e41d41c6b5ac80775e6cd5c","2","8","6351","","","","","","","","","<img src= ""rock_img/I_Peridotite_05.jpg"" style=""width:8cm; height:7.1499999999999995cm;""><p>What type of rock is this?</p>","0","class_response","1","train","31","Andesite","Peridotite","05","false","1","7","",""
"","","","","","","","","","","","html-button-response","166","2.0.0","365871","5e41d41c6b5ac80775e6cd5c","2","8","807","","","","","","","","","<img src= rock_img/I_Peridotite_05.jpg style=""width:8cm; height:7.1499999999999995cm;""><p style='font-size: 30px; color: red;'><strong>Incorrect!</strong></p><p style='font-size: 30px;'><strong>This rock is peridotite</strong></p>","0","corr_feedback","1","train","31","","","","","","","",""
"","","","","","","","","","","","html-button-response","167","2.0.0","367784","5e41d41c6b5ac80775e6cd5c","2","8","1911","","","","","","","","","<img src= ""rock_img/I_Pegmatite_07.jpg"" style=""width:8cm; height:6.7cm;""><p>What type of rock is this?</p>","5","class_response","1","train","32","Pegmatite","Pegmatite","07","true","6","6","",""
"","","","","","","","","","","","html-button-response","168","2.0.0","368423","5e41d41c6b5ac80775e6cd5c","2","8","639","","","","","","","","","<img src= rock_img/I_Pegmatite_07.jpg style=""width:8cm; height:6.7cm;""><p style='font-size: 30px; color: green;'><strong>Correct!</strong></p><p style='font-size: 30px;'><strong>This rock is pegmatite</strong></p>","0","corr_feedback","1","train","32","","","","","","","",""
"","","","","","","","","","","","html-button-response","169","2.0.0","370447","5e41d41c6b5ac80775e6cd5c","2","8","2023","","","","","","","","","<img src= ""rock_img/I_Pegmatite_07.jpg"" style=""width:8cm; height:6.7cm;""><p>What type of rock is this?</p>","5","class_response","1","train","33","Pegmatite","Pegmatite","07","true","6","6","",""
"","","","","","","","","","","","html-button-response","170","2.0.0","370928","5e41d41c6b5ac80775e6cd5c","2","8","479","","","","","","","","","<img src= rock_img/I_Pegmatite_07.jpg style=""width:8cm; height:6.7cm;""><p style='font-size: 30px; color: green;'><strong>Correct!</strong></p><p style='font-size: 30px;'><strong>This rock is pegmatite</strong></p>","0","corr_feedback","1","train","33","","","","","","","",""
"","","","","","","","","","","","html-button-response","171","2.0.0","372616","5e41d41c6b5ac80775e6cd5c","2","8","1686","","","","","","","","","<img src= ""rock_img/I_Gabbro_05.jpg"" style=""width:8cm; height:6cm;""><p>What type of rock is this?</p>","6","class_response","1","train","34","Peridotite","Gabbro","05","false","7","4","",""
"","","","","","","","","","","","html-button-response","172","2.0.0","373384","5e41d41c6b5ac80775e6cd5c","2","8","767","","","","","","","","","<img src= rock_img/I_Gabbro_05.jpg style=""width:8cm; height:6cm;""><p style='font-size: 30px; color: red;'><strong>Incorrect!</strong></p><p style='font-size: 30px;'><strong>This rock is gabbro</strong></p>","0","corr_feedback","1","train","34","","","","","","","",""
"","","","","","","","","","","","html-button-response","173","2.0.0","374527","5e41d41c6b5ac80775e6cd5c","2","8","1143","","","","","","","","","<img src= ""rock_img/I_Diorite_07.jpg"" style=""width:8cm; height:5.239999999999999cm;""><p>What type of rock is this?</p>","6","class_response","1","train","35","Peridotite","Diorite","07","false","7","3","",""
"","","","","","","","","","","","html-button-response","174","2.0.0","375152","5e41d41c6b5ac80775e6cd5c","2","8","623","","","","","","","","","<img src= rock_img/I_Diorite_07.jpg style=""width:8cm; height:5.239999999999999cm;""><p style='font-size: 30px; color: red;'><strong>Incorrect!</strong></p><p style='font-size: 30px;'><strong>This rock is diorite</strong></p>","0","corr_feedback","1","train","35","","","","","","","",""
"","","","","","","","","","","","html-button-response","175","2.0.0","378207","5e41d41c6b5ac80775e6cd5c","2","8","3055","","","","","","","","","<img src= ""rock_img/I_Pegmatite_09.jpg"" style=""width:8cm; height:4.03cm;""><p>What type of rock is this?</p>","6","class_response","1","train","36","Peridotite","Pegmatite","09","false","7","6","",""
"","","","","","","","","","","","html-button-response","176","2.0.0","378959","5e41d41c6b5ac80775e6cd5c","2","8","751","","","","","","","","","<img src= rock_img/I_Pegmatite_09.jpg style=""width:8cm; height:4.03cm;""><p style='font-size: 30px; color: red;'><strong>Incorrect!</strong></p><p style='font-size: 30px;'><strong>This rock is pegmatite</strong></p>","0","corr_feedback","1","train","36","","","","","","","",""
"","","","","","","","","","","","html-button-response","177","2.0.0","380024","5e41d41c6b5ac80775e6cd5c","2","8","1063","","","","","","","","","<img src= ""rock_img/I_Gabbro_09.jpg"" style=""width:8cm; height:7.279999999999999cm;""><p>What type of rock is this?</p>","1","class_response","1","train","37","Basalt","Gabbro","09","false","2","4","",""
"","","","","","","","","","","","html-button-response","178","2.0.0","380743","5e41d41c6b5ac80775e6cd5c","2","8","718","","","","","","","","","<img src= rock_img/I_Gabbro_09.jpg style=""width:8cm; height:7.279999999999999cm;""><p style='font-size: 30px; color: red;'><strong>Incorrect!</strong></p><p style='font-size: 30px;'><strong>This rock is gabbro</strong></p>","0","corr_feedback","1","train","37","","","","","","","",""
"","","","","","","","","","","","html-button-response","179","2.0.0","386455","5e41d41c6b5ac80775e6cd5c","2","8","5711","","","","","","","","","<img src= ""rock_img/I_Peridotite_05.jpg"" style=""width:8cm; height:7.1499999999999995cm;""><p>What type of rock is this?</p>","2","class_response","1","train","38","Diorite","Peridotite","05","false","3","7","",""
"","","","","","","","","","","","html-button-response","180","2.0.0","387151","5e41d41c6b5ac80775e6cd5c","2","8","695","","","","","","","","","<img src= rock_img/I_Peridotite_05.jpg style=""width:8cm; height:7.1499999999999995cm;""><p style='font-size: 30px; color: red;'><strong>Incorrect!</strong></p><p style='font-size: 30px;'><strong>This rock is peridotite</strong></p>","0","corr_feedback","1","train","38","","","","","","","",""
"","","","","","","","","","","","html-button-response","181","2.0.0","392608","5e41d41c6b5ac80775e6cd5c","2","8","5456","","","","","","","","","<img src= ""rock_img/I_Diorite_08.jpg"" style=""width:8cm; height:6.37cm;""><p>What type of rock is this?</p>","2","class_response","1","train","39","Diorite","Diorite","08","true","3","3","",""
"","","","","","","","","","","","html-button-response","182","2.0.0","393743","5e41d41c6b5ac80775e6cd5c","2","8","1135","","","","","","","","","<img src= rock_img/I_Diorite_08.jpg style=""width:8cm; height:6.37cm;""><p style='font-size: 30px; color: green;'><strong>Correct!</strong></p><p style='font-size: 30px;'><strong>This rock is diorite</strong></p>","0","corr_feedback","1","train","39","","","","","","","",""
"","","","","","","","","","","","html-button-response","183","2.0.0","394815","5e41d41c6b5ac80775e6cd5c","2","8","1071","","","","","","","","","<img src= ""rock_img/I_Pumice_10.jpg"" style=""width:8cm; height:7.609999999999999cm;""><p>What type of rock is this?</p>","7","class_response","1","train","40","Pumice","Pumice","10","true","8","8","",""
"","","","","","","","","","","","html-button-response","184","2.0.0","395343","5e41d41c6b5ac80775e6cd5c","2","8","527","","","","","","","","","<img src= rock_img/I_Pumice_10.jpg style=""width:8cm; height:7.609999999999999cm;""><p style='font-size: 30px; color: green;'><strong>Correct!</strong></p><p style='font-size: 30px;'><strong>This rock is pumice</strong></p>","0","corr_feedback","1","train","40","","","","","","","",""
"","","","","","","","","","","","html-button-response","185","2.0.0","396672","5e41d41c6b5ac80775e6cd5c","2","8","1327","","","","","","","","","<img src= ""rock_img/I_Pegmatite_09.jpg"" style=""width:8cm; height:4.03cm;""><p>What type of rock is this?</p>","5","class_response","1","train","41","Pegmatite","Pegmatite","09","true","6","6","",""
"","","","","","","","","","","","html-button-response","186","2.0.0","397327","5e41d41c6b5ac80775e6cd5c","2","8","655","","","","","","","","","<img src= rock_img/I_Pegmatite_09.jpg style=""width:8cm; height:4.03cm;""><p style='font-size: 30px; color: green;'><strong>Correct!</strong></p><p style='font-size: 30px;'><strong>This rock is pegmatite</strong></p>","0","corr_feedback","1","train","41","","","","","","","",""
"","","","","","","","","","","","html-button-response","187","2.0.0","401384","5e41d41c6b5ac80775e6cd5c","2","8","4055","","","","","","","","","<img src= ""rock_img/I_Gabbro_05.jpg"" style=""width:8cm; height:6cm;""><p>What type of rock is this?</p>","3","class_response","1","train","42","Gabbro","Gabbro","05","true","4","4","",""
"","","","","","","","","","","","html-button-response","188","2.0.0","402023","5e41d41c6b5ac80775e6cd5c","2","8","639","","","","","","","","","<img src= rock_img/I_Gabbro_05.jpg style=""width:8cm; height:6cm;""><p style='font-size: 30px; color: green;'><strong>Correct!</strong></p><p style='font-size: 30px;'><strong>This rock is gabbro</strong></p>","0","corr_feedback","1","train","42","","","","","","","",""
"","","","","","","","","","","","html-button-response","189","2.0.0","402951","5e41d41c6b5ac80775e6cd5c","2","8","927","","","","","","","","","<img src= ""rock_img/I_Gabbro_11.jpg"" style=""width:8cm; height:6.2cm;""><p>What type of rock is this?</p>","3","class_response","1","train","43","Gabbro","Gabbro","11","true","4","4","",""
"","","","","","","","","","","","html-button-response","190","2.0.0","403480","5e41d41c6b5ac80775e6cd5c","2","8","528","","","","","","","","","<img src= rock_img/I_Gabbro_11.jpg style=""width:8cm; height:6.2cm;""><p style='font-size: 30px; color: green;'><strong>Correct!</strong></p><p style='font-size: 30px;'><strong>This rock is gabbro</strong></p>","0","corr_feedback","1","train","43","","","","","","","",""
"","","","","","","","","","","","html-button-response","191","2.0.0","404640","5e41d41c6b5ac80775e6cd5c","2","8","1159","","","","","","","","","<img src= ""rock_img/I_Gabbro_12.jpg"" style=""width:8cm; height:7.800000000000001cm;""><p>What type of rock is this?</p>","3","class_response","1","train","44","Gabbro","Gabbro","12","true","4","4","",""
"","","","","","","","","","","","html-button-response","192","2.0.0","405223","5e41d41c6b5ac80775e6cd5c","2","8","582","","","","","","","","","<img src= rock_img/I_Gabbro_12.jpg style=""width:8cm; height:7.800000000000001cm;""><p style='font-size: 30px; color: green;'><strong>Correct!</strong></p><p style='font-size: 30px;'><strong>This rock is gabbro</strong></p>","0","corr_feedback","1","train","44","","","","","","","",""
"","","","","","","","","","","","html-button-response","193","2.0.0","408343","5e41d41c6b5ac80775e6cd5c","2","8","3119","","","","","","","","","<img src= ""rock_img/I_Diorite_10.jpg"" style=""width:8cm; height:5.949999999999999cm;""><p>What type of rock is this?</p>","2","class_response","1","train","45","Diorite","Diorite","10","true","3","3","",""
"","","","","","","","","","","","html-button-response","194","2.0.0","408935","5e41d41c6b5ac80775e6cd5c","2","8","591","","","","","","","","","<img src= rock_img/I_Diorite_10.jpg style=""width:8cm; height:5.949999999999999cm;""><p style='font-size: 30px; color: green;'><strong>Correct!</strong></p><p style='font-size: 30px;'><strong>This rock is diorite</strong></p>","0","corr_feedback","1","train","45","","","","","","","",""
"","","","","","","","","","","","html-button-response","195","2.0.0","410440","5e41d41c6b5ac80775e6cd5c","2","8","1504","","","","","","","","","<img src= ""rock_img/I_Obsidian_10.jpg"" style=""width:8cm; height:6.260000000000001cm;""><p>What type of rock is this?</p>","4","class_response","1","train","46","Obsidian","Obsidian","10","true","5","5","",""
"","","","","","","","","","","","html-button-response","196","2.0.0","410911","5e41d41c6b5ac80775e6cd5c","2","8","470","","","","","","","","","<img src= rock_img/I_Obsidian_10.jpg style=""width:8cm; height:6.260000000000001cm;""><p style='font-size: 30px; color: green;'><strong>Correct!</strong></p><p style='font-size: 30px;'><strong>This rock is obsidian</strong></p>","0","corr_feedback","1","train","46","","","","","","","",""
"","","","","","","","","","","","html-button-response","197","2.0.0","412200","5e41d41c6b5ac80775e6cd5c","2","8","1287","","","","","","","","","<img src= ""rock_img/I_Basalt_10.jpg"" style=""width:8cm; height:5.85cm;""><p>What type of rock is this?</p>","4","class_response","1","train","47","Obsidian","Basalt","10","false","5","2","",""
"","","","","","","","","","","","html-button-response","198","2.0.0","413207","5e41d41c6b5ac80775e6cd5c","2","8","1007","","","","","","","","","<img src= rock_img/I_Basalt_10.jpg style=""width:8cm; height:5.85cm;""><p style='font-size: 30px; color: red;'><strong>Incorrect!</strong></p><p style='font-size: 30px;'><strong>This rock is basalt</strong></p>","0","corr_feedback","1","train","47","","","","","","","",""
"","","","","","","","","","","","html-button-response","199","2.0.0","417184","5e41d41c6b5ac80775e6cd5c","2","8","3975","","","","","","","","","<img src= ""rock_img/I_Andesite_11.jpg"" style=""width:8cm; height:4.92cm;""><p>What type of rock is this?</p>","3","class_response","1","train","48","Gabbro","Andesite","11","false","4","1","",""
"","","","","","","","","","","","html-button-response","200","2.0.0","417983","5e41d41c6b5ac80775e6cd5c","2","8","798","","","","","","","","","<img src= rock_img/I_Andesite_11.jpg style=""width:8cm; height:4.92cm;""><p style='font-size: 30px; color: red;'><strong>Incorrect!</strong></p><p style='font-size: 30px;'><strong>This rock is andesite</strong></p>","0","corr_feedback","1","train","48","","","","","","","",""
"","","","","","","","","","","","instructions","203","2.0.0","427712","5e41d41c6b5ac80775e6cd5c","2","8","9727","","","","","","","","[{""page_index"":0,""viewing_time"":2248},{""page_index"":1,""viewing_time"":7479}]","","","","","","","","","","","","","",""
"","","","","","","","","","","","html-button-response","204","2.0.0","429065","5e41d41c6b5ac80775e6cd5c","2","8","1352","","","","","","","","","","0","start_test","","","","","","","","","","",""
"","","","","","","","","","","","html-button-response","205","2.0.0","431592","5e41d41c6b5ac80775e6cd5c","2","8","2526","","","","","","","","","<img src= ""rock_img/I_Peridotite_12.jpg"" style=""width:8cm; height:4.54cm;""><p>What type of rock is this?</p>","2","class_response","1","test","1","Diorite","Peridotite","12","false","3","7","",""
"","","","","","","","","","","","html-keyboard-response","206","2.0.0","432094","5e41d41c6b5ac80775e6cd5c","2","8","null","","","","","","","","","<p style='font-size: 30px;'><strong>Okay</strong></p>","null","neutral_feedback","1","test","1","","","","","","","",""
"","","","","","","","","","","","html-button-response","207","2.0.0","433312","5e41d41c6b5ac80775e6cd5c","2","8","1217","","","","","","","","","<img src= ""rock_img/I_Pegmatite_06.jpg"" style=""width:8cm; height:5.17cm;""><p>What type of rock is this?</p>","5","class_response","1","test","2","Pegmatite","Pegmatite","06","true","6","6","",""
"","","","","","","","","","","","html-keyboard-response","208","2.0.0","433818","5e41d41c6b5ac80775e6cd5c","2","8","null","","","","","","","","","<p style='font-size: 30px;'><strong>Okay</strong></p>","null","neutral_feedback","1","test","2","","","","","","","",""
"","","","","","","","","","","","html-button-response","209","2.0.0","435592","5e41d41c6b5ac80775e6cd5c","2","8","1773","","","","","","","","","<img src= ""rock_img/I_Pegmatite_13.jpg"" style=""width:8cm; height:4.95cm;""><p>What type of rock is this?</p>","5","class_response","1","test","3","Pegmatite","Pegmatite","13","true","6","6","",""
"","","","","","","","","","","","html-keyboard-response","210","2.0.0","436101","5e41d41c6b5ac80775e6cd5c","2","8","null","","","","","","","","","<p style='font-size: 30px;'><strong>Okay</strong></p>","null","neutral_feedback","1","test","3","","","","","","","",""
"","","","","","","","","","","","html-button-response","211","2.0.0","437080","5e41d41c6b5ac80775e6cd5c","2","8","978","","","","","","","","","<img src= ""rock_img/I_Obsidian_06.jpg"" style=""width:8cm; height:6.8cm;""><p>What type of rock is this?</p>","4","class_response","1","test","4","Obsidian","Obsidian","06","true","5","5","",""
"","","","","","","","","","","","html-keyboard-response","212","2.0.0","437587","5e41d41c6b5ac80775e6cd5c","2","8","null","","","","","","","","","<p style='font-size: 30px;'><strong>Okay</strong></p>","null","neutral_feedback","1","test","4","","","","","","","",""
"","","","","","","","","","","","html-button-response","213","2.0.0","445880","5e41d41c6b5ac80775e6cd5c","2","8","8291","","","","","","","","","<img src= ""rock_img/I_Peridotite_04.jpg"" style=""width:8cm; height:6.680000000000001cm;""><p>What type of rock is this?</p>","2","class_response","1","test","5","Diorite","Peridotite","04","false","3","7","",""
"","","","","","","","","","","","html-keyboard-response","214","2.0.0","446394","5e41d41c6b5ac80775e6cd5c","2","8","null","","","","","","","","","<p style='font-size: 30px;'><strong>Okay</strong></p>","null","neutral_feedback","1","test","5","","","","","","","",""
"","","","","","","","","","","","html-button-response","215","2.0.0","447706","5e41d41c6b5ac80775e6cd5c","2","8","1311","","","","","","","","","<img src= ""rock_img/I_Pegmatite_11.jpg"" style=""width:8cm; height:8.14cm;""><p>What type of rock is this?</p>","5","class_response","1","test","6","Pegmatite","Pegmatite","11","true","6","6","",""
"","","","","","","","","","","","html-keyboard-response","216","2.0.0","448216","5e41d41c6b5ac80775e6cd5c","2","8","null","","","","","","","","","<p style='font-size: 30px;'><strong>Okay</strong></p>","null","neutral_feedback","1","test","6","","","","","","","",""
"","","","","","","","","","","","html-button-response","217","2.0.0","450816","5e41d41c6b5ac80775e6cd5c","2","8","2599","","","","","","","","","<img src= ""rock_img/I_Andesite_16.jpg"" style=""width:8cm; height:6.010000000000001cm;""><p>What type of rock is this?</p>","2","class_response","1","test","7","Diorite","Andesite","16","false","3","1","",""
"","","","","","","","","","","","html-keyboard-response","218","2.0.0","451321","5e41d41c6b5ac80775e6cd5c","2","8","null","","","","","","","","","<p style='font-size: 30px;'><strong>Okay</strong></p>","null","neutral_feedback","1","test","7","","","","","","","",""
"","","","","","","","","","","","html-button-response","219","2.0.0","452784","5e41d41c6b5ac80775e6cd5c","2","8","1462","","","","","","","","","<img src= ""rock_img/I_Andesite_10.jpg"" style=""width:8cm; height:4.16cm;""><p>What type of rock is this?</p>","3","class_response","1","test","8","Gabbro","Andesite","10","false","4","1","",""
"","","","","","","","","","","","html-keyboard-response","220","2.0.0","453293","5e41d41c6b5ac80775e6cd5c","2","8","null","","","","","","","","","<p style='font-size: 30px;'><strong>Okay</strong></p>","null","neutral_feedback","1","test","8","","","","","","","",""
"","","","","","","","","","","","html-button-response","221","2.0.0","456368","5e41d41c6b5ac80775e6cd5c","2","8","3073","","","","","","","","","<img src= ""rock_img/I_Peridotite_14.jpg"" style=""width:8cm; height:5.3cm;""><p>What type of rock is this?</p>","0","class_response","1","test","9","Andesite","Peridotite","14","false","1","7","",""
"","","","","","","","","","","","html-keyboard-response","222","2.0.0","456884","5e41d41c6b5ac80775e6cd5c","2","8","null","","","","","","","","","<p style='font-size: 30px;'><strong>Okay</strong></p>","null","neutral_feedback","1","test","9","","","","","","","",""
"","","","","","","","","","","","html-button-response","223","2.0.0","458960","5e41d41c6b5ac80775e6cd5c","2","8","2074","","","","","","","","","<img src= ""rock_img/I_Peridotite_16.jpg"" style=""width:8cm; height:6.989999999999999cm;""><p>What type of rock is this?</p>","6","class_response","1","test","10","Peridotite","Peridotite","16","true","7","7","",""
"","","","","","","","","","","","html-keyboard-response","224","2.0.0","459476","5e41d41c6b5ac80775e6cd5c","2","8","null","","","","","","","","","<p style='font-size: 30px;'><strong>Okay</strong></p>","null","neutral_feedback","1","test","10","","","","","","","",""
"","","","","","","","","","","","html-button-response","225","2.0.0","460567","5e41d41c6b5ac80775e6cd5c","2","8","1090","","","","","","","","","<img src= ""rock_img/I_Pegmatite_05.jpg"" style=""width:8cm; height:7.300000000000001cm;""><p>What type of rock is this?</p>","5","class_response","1","test","11","Pegmatite","Pegmatite","05","true","6","6","",""
"","","","","","","","","","","","html-keyboard-response","226","2.0.0","461070","5e41d41c6b5ac80775e6cd5c","2","8","null","","","","","","","","","<p style='font-size: 30px;'><strong>Okay</strong></p>","null","neutral_feedback","1","test","11","","","","","","","",""
"","","","","","","","","","","","html-button-response","227","2.0.0","462136","5e41d41c6b5ac80775e6cd5c","2","8","1065","","","","","","","","","<img src= ""rock_img/I_Gabbro_03.jpg"" style=""width:8cm; height:8.52cm;""><p>What type of rock is this?</p>","3","class_response","1","test","12","Gabbro","Gabbro","03","true","4","4","",""
"","","","","","","","","","","","html-keyboard-response","228","2.0.0","462637","5e41d41c6b5ac80775e6cd5c","2","8","null","","","","","","","","","<p style='font-size: 30px;'><strong>Okay</strong></p>","null","neutral_feedback","1","test","12","","","","","","","",""
"","","","","","","","","","","","html-button-response","229","2.0.0","463744","5e41d41c6b5ac80775e6cd5c","2","8","1106","","","","","","","","","<img src= ""rock_img/I_Pumice_15.jpg"" style=""width:8cm; height:7.86cm;""><p>What type of rock is this?</p>","7","class_response","1","test","13","Pumice","Pumice","15","true","8","8","",""
"","","","","","","","","","","","html-keyboard-response","230","2.0.0","464248","5e41d41c6b5ac80775e6cd5c","2","8","null","","","","","","","","","<p style='font-size: 30px;'><strong>Okay</strong></p>","null","neutral_feedback","1","test","13","","","","","","","",""
"","","","","","","","","","","","html-button-response","231","2.0.0","465159","5e41d41c6b5ac80775e6cd5c","2","8","910","","","","","","","","","<img src= ""rock_img/I_Pumice_14.jpg"" style=""width:8cm; height:6.39cm;""><p>What type of rock is this?</p>","7","class_response","1","test","14","Pumice","Pumice","14","true","8","8","",""
"","","","","","","","","","","","html-keyboard-response","232","2.0.0","465663","5e41d41c6b5ac80775e6cd5c","2","8","null","","","","","","","","","<p style='font-size: 30px;'><strong>Okay</strong></p>","null","neutral_feedback","1","test","14","","","","","","","",""
"","","","","","","","","","","","html-button-response","233","2.0.0","471928","5e41d41c6b5ac80775e6cd5c","2","8","6264","","","","","","","","","<img src= ""rock_img/I_Andesite_05.jpg"" style=""width:8cm; height:4.12cm;""><p>What type of rock is this?</p>","2","class_response","1","test","15","Diorite","Andesite","05","false","3","1","",""
"","","","","","","","","","","","html-keyboard-response","234","2.0.0","472436","5e41d41c6b5ac80775e6cd5c","2","8","null","","","","","","","","","<p style='font-size: 30px;'><strong>Okay</strong></p>","null","neutral_feedback","1","test","15","","","","","","","",""
"","","","","","","","","","","","html-button-response","235","2.0.0","474313","5e41d41c6b5ac80775e6cd5c","2","8","1875","","","","","","","","","<img src= ""rock_img/I_Diorite_06.jpg"" style=""width:8cm; height:6.03cm;""><p>What type of rock is this?</p>","2","class_response","1","test","16","Diorite","Diorite","06","true","3","3","",""
"","","","","","","","","","","","html-keyboard-response","236","2.0.0","474827","5e41d41c6b5ac80775e6cd5c","2","8","null","","","","","","","","","<p style='font-size: 30px;'><strong>Okay</strong></p>","null","neutral_feedback","1","test","16","","","","","","","",""
"","","","","","","","","","","","html-button-response","237","2.0.0","476728","5e41d41c6b5ac80775e6cd5c","2","8","1900","","","","","","","","","<img src= ""rock_img/I_Gabbro_14.jpg"" style=""width:8cm; height:8.48cm;""><p>What type of rock is this?</p>","1","class_response","1","test","17","Basalt","Gabbro","14","false","2","4","",""
"","","","","","","","","","","","html-keyboard-response","238","2.0.0","477230","5e41d41c6b5ac80775e6cd5c","2","8","null","","","","","","","","","<p style='font-size: 30px;'><strong>Okay</strong></p>","null","neutral_feedback","1","test","17","","","","","","","",""
"","","","","","","","","","","","html-button-response","239","2.0.0","482153","5e41d41c6b5ac80775e6cd5c","2","8","4920","","","","","","","","","<img src= ""rock_img/I_Basalt_02.jpg"" style=""width:8cm; height:6.45cm;""><p>What type of rock is this?</p>","3","class_response","1","test","18","Gabbro","Basalt","02","false","4","2","",""
"","","","","","","","","","","","html-keyboard-response","240","2.0.0","482668","5e41d41c6b5ac80775e6cd5c","2","8","null","","","","","","","","","<p style='font-size: 30px;'><strong>Okay</strong></p>","null","neutral_feedback","1","test","18","","","","","","","",""
"","","","","","","","","","","","html-button-response","241","2.0.0","484722","5e41d41c6b5ac80775e6cd5c","2","8","2052","","","","","","","","","<img src= ""rock_img/I_Obsidian_05.jpg"" style=""width:8cm; height:6.33cm;""><p>What type of rock is this?</p>","4","class_response","1","test","19","Obsidian","Obsidian","05","true","5","5","",""
"","","","","","","","","","","","html-keyboard-response","242","2.0.0","485236","5e41d41c6b5ac80775e6cd5c","2","8","null","","","","","","","","","<p style='font-size: 30px;'><strong>Okay</strong></p>","null","neutral_feedback","1","test","19","","","","","","","",""
"","","","","","","","","","","","html-button-response","243","2.0.0","486929","5e41d41c6b5ac80775e6cd5c","2","8","1692","","","","","","","","","<img src= ""rock_img/I_Gabbro_08.jpg"" style=""width:8cm; height:5.15cm;""><p>What type of rock is this?</p>","1","class_response","1","test","20","Basalt","Gabbro","08","false","2","4","",""
"","","","","","","","","","","","html-keyboard-response","244","2.0.0","487435","5e41d41c6b5ac80775e6cd5c","2","8","null","","","","","","","","","<p style='font-size: 30px;'><strong>Okay</strong></p>","null","neutral_feedback","1","test","20","","","","","","","",""
"","","","","","","","","","","","html-button-response","245","2.0.0","489073","5e41d41c6b5ac80775e6cd5c","2","8","1637","","","","","","","","","<img src= ""rock_img/I_Basalt_05.jpg"" style=""width:8cm; height:8.18cm;""><p>What type of rock is this?</p>","3","class_response","1","test","21","Gabbro","Basalt","05","false","4","2","",""
"","","","","","","","","","","","html-keyboard-response","246","2.0.0","489576","5e41d41c6b5ac80775e6cd5c","2","8","null","","","","","","","","","<p style='font-size: 30px;'><strong>Okay</strong></p>","null","neutral_feedback","1","test","21","","","","","","","",""
"","","","","","","","","","","","html-button-response","247","2.0.0","491089","5e41d41c6b5ac80775e6cd5c","2","8","1512","","","","","","","","","<img src= ""rock_img/I_Pegmatite_10.jpg"" style=""width:8cm; height:4.16cm;""><p>What type of rock is this?</p>","5","class_response","1","test","22","Pegmatite","Pegmatite","10","true","6","6","",""
"","","","","","","","","","","","html-keyboard-response","248","2.0.0","491598","5e41d41c6b5ac80775e6cd5c","2","8","null","","","","","","","","","<p style='font-size: 30px;'><strong>Okay</strong></p>","null","neutral_feedback","1","test","22","","","","","","","",""
"","","","","","","","","","","","html-button-response","249","2.0.0","493017","5e41d41c6b5ac80775e6cd5c","2","8","1417","","","","","","","","","<img src= ""rock_img/I_Peridotite_13.jpg"" style=""width:8cm; height:7.58cm;""><p>What type of rock is this?</p>","6","class_response","1","test","23","Peridotite","Peridotite","13","true","7","7","",""
"","","","","","","","","","","","html-keyboard-response","250","2.0.0","493531","5e41d41c6b5ac80775e6cd5c","2","8","null","","","","","","","","","<p style='font-size: 30px;'><strong>Okay</strong></p>","null","neutral_feedback","1","test","23","","","","","","","",""
"","","","","","","","","","","","html-button-response","251","2.0.0","496153","5e41d41c6b5ac80775e6cd5c","2","8","2620","","","","","","","","","<img src= ""rock_img/I_Gabbro_16.jpg"" style=""width:8cm; height:6.44cm;""><p>What type of rock is this?</p>","1","class_response","1","test","24","Basalt","Gabbro","16","false","2","4","",""
"","","","","","","","","","","","html-keyboard-response","252","2.0.0","496667","5e41d41c6b5ac80775e6cd5c","2","8","null","","","","","","","","","<p style='font-size: 30px;'><strong>Okay</strong></p>","null","neutral_feedback","1","test","24","","","","","","","",""
"","","","","","","","","","","","html-button-response","253","2.0.0","498632","5e41d41c6b5ac80775e6cd5c","2","8","1964","","","","","","","","","<img src= ""rock_img/I_Basalt_14.jpg"" style=""width:8cm; height:5.82cm;""><p>What type of rock is this?</p>","1","class_response","1","test","25","Basalt","Basalt","14","true","2","2","",""
"","","","","","","","","","","","html-keyboard-response","254","2.0.0","499142","5e41d41c6b5ac80775e6cd5c","2","8","null","","","","","","","","","<p style='font-size: 30px;'><strong>Okay</strong></p>","null","neutral_feedback","1","test","25","","","","","","","",""
"","","","","","","","","","","","html-button-response","255","2.0.0","500592","5e41d41c6b5ac80775e6cd5c","2","8","1449","","","","","","","","","<img src= ""rock_img/I_Andesite_07.jpg"" style=""width:8cm; height:5.93cm;""><p>What type of rock is this?</p>","2","class_response","1","test","26","Diorite","Andesite","07","false","3","1","",""
"","","","","","","","","","","","html-keyboard-response","256","2.0.0","501107","5e41d41c6b5ac80775e6cd5c","2","8","null","","","","","","","","","<p style='font-size: 30px;'><strong>Okay</strong></p>","null","neutral_feedback","1","test","26","","","","","","","",""
"","","","","","","","","","","","html-button-response","257","2.0.0","502232","5e41d41c6b5ac80775e6cd5c","2","8","1124","","","","","","","","","<img src= ""rock_img/I_Obsidian_14.jpg"" style=""width:8cm; height:7.64cm;""><p>What type of rock is this?</p>","4","class_response","1","test","27","Obsidian","Obsidian","14","true","5","5","",""
"","","","","","","","","","","","html-keyboard-response","258","2.0.0","502734","5e41d41c6b5ac80775e6cd5c","2","8","null","","","","","","","","","<p style='font-size: 30px;'><strong>Okay</strong></p>","null","neutral_feedback","1","test","27","","","","","","","",""
"","","","","","","","","","","","html-button-response","259","2.0.0","503913","5e41d41c6b5ac80775e6cd5c","2","8","1178","","","","","","","","","<img src= ""rock_img/I_Basalt_04.jpg"" style=""width:8cm; height:7.53cm;""><p>What type of rock is this?</p>","3","class_response","1","test","28","Gabbro","Basalt","04","false","4","2","",""
"","","","","","","","","","","","html-keyboard-response","260","2.0.0","504427","5e41d41c6b5ac80775e6cd5c","2","8","null","","","","","","","","","<p style='font-size: 30px;'><strong>Okay</strong></p>","null","neutral_feedback","1","test","28","","","","","","","",""
"","","","","","","","","","","","html-button-response","261","2.0.0","505569","5e41d41c6b5ac80775e6cd5c","2","8","1140","","","","","","","","","<img src= ""rock_img/I_Pumice_04.jpg"" style=""width:8cm; height:6.819999999999999cm;""><p>What type of rock is this?</p>","7","class_response","1","test","29","Pumice","Pumice","04","true","8","8","",""
"","","","","","","","","","","","html-keyboard-response","262","2.0.0","506069","5e41d41c6b5ac80775e6cd5c","2","8","null","","","","","","","","","<p style='font-size: 30px;'><strong>Okay</strong></p>","null","neutral_feedback","1","test","29","","","","","","","",""
"","","","","","","","","","","","html-button-response","263","2.0.0","508473","5e41d41c6b5ac80775e6cd5c","2","8","2402","","","","","","","","","<img src= ""rock_img/I_Peridotite_10.jpg"" style=""width:8cm; height:5.390000000000001cm;""><p>What type of rock is this?</p>","6","class_response","1","test","30","Peridotite","Peridotite","10","true","7","7","",""
"","","","","","","","","","","","html-keyboard-response","264","2.0.0","508985","5e41d41c6b5ac80775e6cd5c","2","8","null","","","","","","","","","<p style='font-size: 30px;'><strong>Okay</strong></p>","null","neutral_feedback","1","test","30","","","","","","","",""
"","","","","","","","","","","","html-button-response","265","2.0.0","510986","5e41d41c6b5ac80775e6cd5c","2","8","1999","","","","","","","","","<img src= ""rock_img/I_Gabbro_01.jpg"" style=""width:8cm; height:5.21cm;""><p>What type of rock is this?</p>","6","class_response","1","test","31","Peridotite","Gabbro","01","false","7","4","",""
"","","","","","","","","","","","html-keyboard-response","266","2.0.0","511500","5e41d41c6b5ac80775e6cd5c","2","8","null","","","","","","","","","<p style='font-size: 30px;'><strong>Okay</strong></p>","null","neutral_feedback","1","test","31","","","","","","","",""
"","","","","","","","","","","","html-button-response","267","2.0.0","514378","5e41d41c6b5ac80775e6cd5c","2","8","2877","","","","","","","","","<img src= ""rock_img/I_Gabbro_13.jpg"" style=""width:8cm; height:5.08cm;""><p>What type of rock is this?</p>","0","class_response","1","test","32","Andesite","Gabbro","13","false","1","4","",""
"","","","","","","","","","","","html-keyboard-response","268","2.0.0","514886","5e41d41c6b5ac80775e6cd5c","2","8","null","","","","","","","","","<p style='font-size: 30px;'><strong>Okay</strong></p>","null","neutral_feedback","1","test","32","","","","","","","",""
"","","","","","","","","","","","html-button-response","269","2.0.0","516305","5e41d41c6b5ac80775e6cd5c","2","8","1418","","","","","","","","","<img src= ""rock_img/I_Pumice_03.jpg"" style=""width:8cm; height:6.64cm;""><p>What type of rock is this?</p>","7","class_response","1","test","33","Pumice","Pumice","03","true","8","8","",""
"","","","","","","","","","","","html-keyboard-response","270","2.0.0","516814","5e41d41c6b5ac80775e6cd5c","2","8","null","","","","","","","","","<p style='font-size: 30px;'><strong>Okay</strong></p>","null","neutral_feedback","1","test","33","","","","","","","",""
"","","","","","","","","","","","html-button-response","271","2.0.0","517841","5e41d41c6b5ac80775e6cd5c","2","8","1026","","","","","","","","","<img src= ""rock_img/I_Pegmatite_16.jpg"" style=""width:8cm; height:5.8cm;""><p>What type of rock is this?</p>","5","class_response","1","test","34","Pegmatite","Pegmatite","16","true","6","6","",""
"","","","","","","","","","","","html-keyboard-response","272","2.0.0","518342","5e41d41c6b5ac80775e6cd5c","2","8","null","","","","","","","","","<p style='font-size: 30px;'><strong>Okay</strong></p>","null","neutral_feedback","1","test","34","","","","","","","",""
"","","","","","","","","","","","html-button-response","273","2.0.0","520609","5e41d41c6b5ac80775e6cd5c","2","8","2265","","","","","","","","","<img src= ""rock_img/I_Andesite_04.jpg"" style=""width:8cm; height:5.96cm;""><p>What type of rock is this?</p>","0","class_response","1","test","35","Andesite","Andesite","04","true","1","1","",""
"","","","","","","","","","","","html-keyboard-response","274","2.0.0","521110","5e41d41c6b5ac80775e6cd5c","2","8","null","","","","","","","","","<p style='font-size: 30px;'><strong>Okay</strong></p>","null","neutral_feedback","1","test","35","","","","","","","",""
"","","","","","","","","","","","html-button-response","275","2.0.0","522016","5e41d41c6b5ac80775e6cd5c","2","8","905","","","","","","","","","<img src= ""rock_img/I_Pumice_09.jpg"" style=""width:8cm; height:6.44cm;""><p>What type of rock is this?</p>","7","class_response","1","test","36","Pumice","Pumice","09","true","8","8","",""
"","","","","","","","","","","","html-keyboard-response","276","2.0.0","522526","5e41d41c6b5ac80775e6cd5c","2","8","null","","","","","","","","","<p style='font-size: 30px;'><strong>Okay</strong></p>","null","neutral_feedback","1","test","36","","","","","","","",""
"","","","","","","","","","","","html-button-response","277","2.0.0","523705","5e41d41c6b5ac80775e6cd5c","2","8","1177","","","","","","","","","<img src= ""rock_img/I_Diorite_14.jpg"" style=""width:8cm; height:5.71cm;""><p>What type of rock is this?</p>","2","class_response","1","test","37","Diorite","Diorite","14","true","3","3","",""
"","","","","","","","","","","","html-keyboard-response","278","2.0.0","524216","5e41d41c6b5ac80775e6cd5c","2","8","null","","","","","","","","","<p style='font-size: 30px;'><strong>Okay</strong></p>","null","neutral_feedback","1","test","37","","","","","","","",""
"","","","","","","","","","","","html-button-response","279","2.0.0","524993","5e41d41c6b5ac80775e6cd5c","2","8","776","","","","","","","","","<img src= ""rock_img/I_Diorite_16.jpg"" style=""width:8cm; height:6.74cm;""><p>What type of rock is this?</p>","2","class_response","1","test","38","Diorite","Diorite","16","true","3","3","",""
"","","","","","","","","","","","html-keyboard-response","280","2.0.0","525509","5e41d41c6b5ac80775e6cd5c","2","8","null","","","","","","","","","<p style='font-size: 30px;'><strong>Okay</strong></p>","null","neutral_feedback","1","test","38","","","","","","","",""
"","","","","","","","","","","","html-button-response","281","2.0.0","526353","5e41d41c6b5ac80775e6cd5c","2","8","842","","","","","","","","","<img src= ""rock_img/I_Diorite_11.jpg"" style=""width:8cm; height:7.11cm;""><p>What type of rock is this?</p>","2","class_response","1","test","39","Diorite","Diorite","11","true","3","3","",""
"","","","","","","","","","","","html-keyboard-response","282","2.0.0","526864","5e41d41c6b5ac80775e6cd5c","2","8","null","","","","","","","","","<p style='font-size: 30px;'><strong>Okay</strong></p>","null","neutral_feedback","1","test","39","","","","","","","",""
"","","","","","","","","","","","html-button-response","283","2.0.0","527648","5e41d41c6b5ac80775e6cd5c","2","8","783","","","","","","","","","<img src= ""rock_img/I_Diorite_13.jpg"" style=""width:8cm; height:6.29cm;""><p>What type of rock is this?</p>","2","class_response","1","test","40","Diorite","Diorite","13","true","3","3","",""
"","","","","","","","","","","","html-keyboard-response","284","2.0.0","528155","5e41d41c6b5ac80775e6cd5c","2","8","null","","","","","","","","","<p style='font-size: 30px;'><strong>Okay</strong></p>","null","neutral_feedback","1","test","40","","","","","","","",""
"","","","","","","","","","","","html-button-response","285","2.0.0","528920","5e41d41c6b5ac80775e6cd5c","2","8","764","","","","","","","","","<img src= ""rock_img/I_Diorite_02.jpg"" style=""width:8cm; height:6.27cm;""><p>What type of rock is this?</p>","2","class_response","1","test","41","Diorite","Diorite","02","true","3","3","",""
"","","","","","","","","","","","html-keyboard-response","286","2.0.0","529434","5e41d41c6b5ac80775e6cd5c","2","8","null","","","","","","","","","<p style='font-size: 30px;'><strong>Okay</strong></p>","null","neutral_feedback","1","test","41","","","","","","","",""
"","","","","","","","","","","","html-button-response","287","2.0.0","530320","5e41d41c6b5ac80775e6cd5c","2","8","885","","","","","","","","","<img src= ""rock_img/I_Pumice_06.jpg"" style=""width:8cm; height:6.9399999999999995cm;""><p>What type of rock is this?</p>","7","class_response","1","test","42","Pumice","Pumice","06","true","8","8","",""
"","","","","","","","","","","","html-keyboard-response","288","2.0.0","530824","5e41d41c6b5ac80775e6cd5c","2","8","null","","","","","","","","","<p style='font-size: 30px;'><strong>Okay</strong></p>","null","neutral_feedback","1","test","42","","","","","","","",""
"","","","","","","","","","","","html-button-response","289","2.0.0","532520","5e41d41c6b5ac80775e6cd5c","2","8","1695","","","","","","","","","<img src= ""rock_img/I_Basalt_01.jpg"" style=""width:8cm; height:7.880000000000001cm;""><p>What type of rock is this?</p>","3","class_response","1","test","43","Gabbro","Basalt","01","false","4","2","",""
"","","","","","","","","","","","html-keyboard-response","290","2.0.0","533028","5e41d41c6b5ac80775e6cd5c","2","8","null","","","","","","","","","<p style='font-size: 30px;'><strong>Okay</strong></p>","null","neutral_feedback","1","test","43","","","","","","","",""
"","","","","","","","","","","","html-button-response","291","2.0.0","537624","5e41d41c6b5ac80775e6cd5c","2","8","4596","","","","","","","","","<img src= ""rock_img/I_Andesite_01.jpg"" style=""width:8cm; height:5.87cm;""><p>What type of rock is this?</p>","3","class_response","1","test","44","Gabbro","Andesite","01","false","4","1","",""
"","","","","","","","","","","","html-keyboard-response","292","2.0.0","538128","5e41d41c6b5ac80775e6cd5c","2","8","null","","","","","","","","","<p style='font-size: 30px;'><strong>Okay</strong></p>","null","neutral_feedback","1","test","44","","","","","","","",""
"","","","","","","","","","","","html-button-response","293","2.0.0","539097","5e41d41c6b5ac80775e6cd5c","2","8","967","","","","","","","","","<img src= ""rock_img/I_Obsidian_11.jpg"" style=""width:8cm; height:6.05cm;""><p>What type of rock is this?</p>","4","class_response","1","test","45","Obsidian","Obsidian","11","true","5","5","",""
"","","","","","","","","","","","html-keyboard-response","294","2.0.0","539599","5e41d41c6b5ac80775e6cd5c","2","8","null","","","","","","","","","<p style='font-size: 30px;'><strong>Okay</strong></p>","null","neutral_feedback","1","test","45","","","","","","","",""
"","","","","","","","","","","","html-button-response","295","2.0.0","540425","5e41d41c6b5ac80775e6cd5c","2","8","825","","","","","","","","","<img src= ""rock_img/I_Obsidian_07.jpg"" style=""width:8cm; height:4.76cm;""><p>What type of rock is this?</p>","4","class_response","1","test","46","Obsidian","Obsidian","07","true","5","5","",""
"","","","","","","","","","","","html-keyboard-response","296","2.0.0","540936","5e41d41c6b5ac80775e6cd5c","2","8","null","","","","","","","","","<p style='font-size: 30px;'><strong>Okay</strong></p>","null","neutral_feedback","1","test","46","","","","","","","",""
"","","","","","","","","","","","html-button-response","297","2.0.0","542032","5e41d41c6b5ac80775e6cd5c","2","8","1096","","","","","","","","","<img src= ""rock_img/I_Basalt_11.jpg"" style=""width:8cm; height:5.359999999999999cm;""><p>What type of rock is this?</p>","1","class_response","1","test","47","Basalt","Basalt","11","true","2","2","",""
"","","","","","","","","","","","html-keyboard-response","298","2.0.0","542541","5e41d41c6b5ac80775e6cd5c","2","8","null","","","","","","","","","<p style='font-size: 30px;'><strong>Okay</strong></p>","null","neutral_feedback","1","test","47","","","","","","","",""
"","","","","","","","","","","","html-button-response","299","2.0.0","543801","5e41d41c6b5ac80775e6cd5c","2","8","1258","","","","","","","","","<img src= ""rock_img/I_Obsidian_09.jpg"" style=""width:8cm; height:5cm;""><p>What type of rock is this?</p>","4","class_response","1","test","48","Obsidian","Obsidian","09","true","5","5","",""
"","","","","","","","","","","","html-keyboard-response","300","2.0.0","544316","5e41d41c6b5ac80775e6cd5c","2","8","null","","","","","","","","","<p style='font-size: 30px;'><strong>Okay</strong></p>","null","neutral_feedback","1","test","48","","","","","","","",""
"","","","","","","","","","","","html-button-response","301","2.0.0","579016","5e41d41c6b5ac80775e6cd5c","2","8","","","","","","","","","","","","cycle_feedback","","","","","","","","","","10856.799999952316","23839.600000023842"
"","","","","","","","","","","","html-button-response","303","2.0.0","580936","5e41d41c6b5ac80775e6cd5c","2","8","1919","","","","","","","","","","0","start_train","","","","","","","","","","",""
"","","","","","","","","","","","html-button-response","304","2.0.0","585168","5e41d41c6b5ac80775e6cd5c","2","8","4231","","","","","","","","","<img src= ""rock_img/I_Gabbro_10.jpg"" style=""width:8cm; height:5.680000000000001cm;""><p>What type of rock is this?</p>","1","class_response","2","train","1","Basalt","Gabbro","10","false","2","4","",""
"","","","","","","","","","","","html-button-response","305","2.0.0","586640","5e41d41c6b5ac80775e6cd5c","2","8","1471","","","","","","","","","<img src= rock_img/I_Gabbro_10.jpg style=""width:8cm; height:5.680000000000001cm;""><p style='font-size: 30px; color: red;'><strong>Incorrect!</strong></p><p style='font-size: 30px;'><strong>This rock is gabbro</strong></p>","0","corr_feedback","2","train","1","","","","","","","",""
