"width","height","webaudio","browser","browser_version","mobile","os","fullscreen","vsync_rate","webcam","microphone","trial_type","trial_index","plugin_version","time_elapsed","subjID","condition","stimID","rt","url","success","value","timeout","failed_images","failed_audio","failed_video","view_history","stimulus","response","trialType","cycle","phase","trial","resp","cat","token","corr","resp_num","cat_num","ref_cat_num","paired_cat_num","time_obs","ref_cat","paired_cat","ref_prob_dist","paired_prob_dist","text_Pegmatite","text_Peridotite","time_resp","text_Andesite","text_Basalt","time_fb1","time_fb2","text_Gabbro"
"1920","911","true","chrome","131.0.0","false","Windows 10","true","3.42","true","true","browser-check","0","2.0.0","17582","62c44d672834a5c5ce7362f1","3","45","","","","","","","","","","","","","","","","","","","","","","","","","","","","","","","","","","","",""
"","","","","","","","","","","","external-html","1","2.0.0","86135","62c44d672834a5c5ce7362f1","3","45","68476","consent_form.html","","","","","","","","","","","","","","","","","","","","","","","","","","","","","","","","","",""
"","","","","","","","","","","","fullscreen","2","2.0.0","97110","62c44d672834a5c5ce7362f1","3","45","9972","","true","","","","","","","","","","","","","","","","","","","","","","","","","","","","","","","","",""
"","","","","","","","","","","","call-function","3","2.0.0","97113","62c44d672834a5c5ce7362f1","3","45","","","","{}","","","","","","","","","","","","","","","","","","","","","","","","","","","","","","","",""
"","","","","","","","","","","","preload","4","2.0.0","98380","62c44d672834a5c5ce7362f1","3","45","","","true","","false","[]","[]","[]","","","","","","","","","","","","","","","","","","","","","","","","","","","",""
"","","","","","","","","","","","instructions","5","2.0.0","140646","62c44d672834a5c5ce7362f1","3","45","42264","","","","","","","","[{""page_index"":0,""viewing_time"":6690},{""page_index"":1,""viewing_time"":29178},{""page_index"":2,""viewing_time"":6396}]","","","","","","","","","","","","","","","","","","","","","","","","","","",""
"","","","","","","","","","","","html-button-response","6","2.0.0","144529","62c44d672834a5c5ce7362f1","3","45","3881","","","","","","","","","","0","start_test","","","","","","","","","","","","","","","","","","","","","","","",""
"","","","","","","","","","","","html-button-response","7","2.0.0","153256","62c44d672834a5c5ce7362f1","3","45","8724","","","","","","","","","<img src= ""rock_img/I_Andesite_11.jpg"" style=""width:8cm; height:4.92cm;""><p>What type of rock is this?</p>","1","class_response","0","test","1","Basalt","Andesite","11","false","2","1","","","","","","","","","","","","","","",""
"","","","","","","","","","","","html-keyboard-response","8","2.0.0","153759","62c44d672834a5c5ce7362f1","3","45","null","","","","","","","","","<p style='font-size: 30px;'><strong>Okay</strong></p>","null","neutral_feedback","0","test","1","","","","","","","","","","","","","","","","","","","","",""
"","","","","","","","","","","","html-button-response","9","2.0.0","156397","62c44d672834a5c5ce7362f1","3","45","2636","","","","","","","","","<img src= ""rock_img/I_Obsidian_04.jpg"" style=""width:8cm; height:6.930000000000001cm;""><p>What type of rock is this?</p>","4","class_response","0","test","2","Obsidian","Obsidian","04","true","5","5","","","","","","","","","","","","","","",""
"","","","","","","","","","","","html-keyboard-response","10","2.0.0","156899","62c44d672834a5c5ce7362f1","3","45","null","","","","","","","","","<p style='font-size: 30px;'><strong>Okay</strong></p>","null","neutral_feedback","0","test","2","","","","","","","","","","","","","","","","","","","","",""
"","","","","","","","","","","","html-button-response","11","2.0.0","161956","62c44d672834a5c5ce7362f1","3","45","5055","","","","","","","","","<img src= ""rock_img/I_Andesite_09.jpg"" style=""width:8cm; height:6cm;""><p>What type of rock is this?</p>","2","class_response","0","test","3","Diorite","Andesite","09","false","3","1","","","","","","","","","","","","","","",""
"","","","","","","","","","","","html-keyboard-response","12","2.0.0","162459","62c44d672834a5c5ce7362f1","3","45","null","","","","","","","","","<p style='font-size: 30px;'><strong>Okay</strong></p>","null","neutral_feedback","0","test","3","","","","","","","","","","","","","","","","","","","","",""
"","","","","","","","","","","","html-button-response","13","2.0.0","164215","62c44d672834a5c5ce7362f1","3","45","1755","","","","","","","","","<img src= ""rock_img/I_Obsidian_11.jpg"" style=""width:8cm; height:6.05cm;""><p>What type of rock is this?</p>","4","class_response","0","test","4","Obsidian","Obsidian","11","true","5","5","","","","","","","","","","","","","","",""
"","","","","","","","","","","","html-keyboard-response","14","2.0.0","164717","62c44d672834a5c5ce7362f1","3","45","null","","","","","","","","","<p style='font-size: 30px;'><strong>Okay</strong></p>","null","neutral_feedback","0","test","4","","","","","","","","","","","","","","","","","","","","",""
"","","","","","","","","","","","html-button-response","15","2.0.0","169430","62c44d672834a5c5ce7362f1","3","45","4711","","","","","","","","","<img src= ""rock_img/I_Peridotite_04.jpg"" style=""width:8cm; height:6.680000000000001cm;""><p>What type of rock is this?</p>","6","class_response","0","test","5","Peridotite","Peridotite","04","true","7","7","","","","","","","","","","","","","","",""
"","","","","","","","","","","","html-keyboard-response","16","2.0.0","169932","62c44d672834a5c5ce7362f1","3","45","null","","","","","","","","","<p style='font-size: 30px;'><strong>Okay</strong></p>","null","neutral_feedback","0","test","5","","","","","","","","","","","","","","","","","","","","",""
"","","","","","","","","","","","html-button-response","17","2.0.0","176581","62c44d672834a5c5ce7362f1","3","45","6648","","","","","","","","","<img src= ""rock_img/I_Peridotite_05.jpg"" style=""width:8cm; height:7.1499999999999995cm;""><p>What type of rock is this?</p>","1","class_response","0","test","6","Basalt","Peridotite","05","false","2","7","","","","","","","","","","","","","","",""
"","","","","","","","","","","","html-keyboard-response","18","2.0.0","177083","62c44d672834a5c5ce7362f1","3","45","null","","","","","","","","","<p style='font-size: 30px;'><strong>Okay</strong></p>","null","neutral_feedback","0","test","6","","","","","","","","","","","","","","","","","","","","",""
"","","","","","","","","","","","html-button-response","19","2.0.0","185238","62c44d672834a5c5ce7362f1","3","45","8152","","","","","","","","","<img src= ""rock_img/I_Gabbro_03.jpg"" style=""width:8cm; height:8.52cm;""><p>What type of rock is this?</p>","5","class_response","0","test","7","Pegmatite","Gabbro","03","false","6","4","","","","","","","","","","","","","","",""
"","","","","","","","","","","","html-keyboard-response","20","2.0.0","185751","62c44d672834a5c5ce7362f1","3","45","null","","","","","","","","","<p style='font-size: 30px;'><strong>Okay</strong></p>","null","neutral_feedback","0","test","7","","","","","","","","","","","","","","","","","","","","",""
"","","","","","","","","","","","html-button-response","21","2.0.0","190160","62c44d672834a5c5ce7362f1","3","45","4406","","","","","","","","","<img src= ""rock_img/I_Peridotite_08.jpg"" style=""width:8cm; height:6.7cm;""><p>What type of rock is this?</p>","5","class_response","0","test","8","Pegmatite","Peridotite","08","false","6","7","","","","","","","","","","","","","","",""
"","","","","","","","","","","","html-keyboard-response","22","2.0.0","190661","62c44d672834a5c5ce7362f1","3","45","null","","","","","","","","","<p style='font-size: 30px;'><strong>Okay</strong></p>","null","neutral_feedback","0","test","8","","","","","","","","","","","","","","","","","","","","",""
"","","","","","","","","","","","html-button-response","23","2.0.0","195940","62c44d672834a5c5ce7362f1","3","45","5277","","","","","","","","","<img src= ""rock_img/I_Basalt_02.jpg"" style=""width:8cm; height:6.45cm;""><p>What type of rock is this?</p>","1","class_response","0","test","9","Basalt","Basalt","02","true","2","2","","","","","","","","","","","","","","",""
"","","","","","","","","","","","html-keyboard-response","24","2.0.0","196449","62c44d672834a5c5ce7362f1","3","45","null","","","","","","","","","<p style='font-size: 30px;'><strong>Okay</strong></p>","null","neutral_feedback","0","test","9","","","","","","","","","","","","","","","","","","","","",""
"","","","","","","","","","","","html-button-response","25","2.0.0","199481","62c44d672834a5c5ce7362f1","3","45","3030","","","","","","","","","<img src= ""rock_img/I_Andesite_10.jpg"" style=""width:8cm; height:4.16cm;""><p>What type of rock is this?</p>","1","class_response","0","test","10","Basalt","Andesite","10","false","2","1","","","","","","","","","","","","","","",""
"","","","","","","","","","","","html-keyboard-response","26","2.0.0","199991","62c44d672834a5c5ce7362f1","3","45","null","","","","","","","","","<p style='font-size: 30px;'><strong>Okay</strong></p>","null","neutral_feedback","0","test","10","","","","","","","","","","","","","","","","","","","","",""
"","","","","","","","","","","","html-button-response","27","2.0.0","202875","62c44d672834a5c5ce7362f1","3","45","2883","","","","","","","","","<img src= ""rock_img/I_Pumice_16.jpg"" style=""width:8cm; height:6.79cm;""><p>What type of rock is this?</p>","7","class_response","0","test","11","Pumice","Pumice","16","true","8","8","","","","","","","","","","","","","","",""
"","","","","","","","","","","","html-keyboard-response","28","2.0.0","203385","62c44d672834a5c5ce7362f1","3","45","null","","","","","","","","","<p style='font-size: 30px;'><strong>Okay</strong></p>","null","neutral_feedback","0","test","11","","","","","","","","","","","","","","","","","","","","",""
"","","","","","","","","","","","html-button-response","29","2.0.0","209387","62c44d672834a5c5ce7362f1","3","45","6001","","","","","","","","","<img src= ""rock_img/I_Gabbro_01.jpg"" style=""width:8cm; height:5.21cm;""><p>What type of rock is this?</p>","3","class_response","0","test","12","Gabbro","Gabbro","01","true","4","4","","","","","","","","","","","","","","",""
"","","","","","","","","","","","html-keyboard-response","30","2.0.0","209895","62c44d672834a5c5ce7362f1","3","45","null","","","","","","","","","<p style='font-size: 30px;'><strong>Okay</strong></p>","null","neutral_feedback","0","test","12","","","","","","","","","","","","","","","","","","","","",""
"","","","","","","","","","","","html-button-response","31","2.0.0","213073","62c44d672834a5c5ce7362f1","3","45","3177","","","","","","","","","<img src= ""rock_img/I_Basalt_04.jpg"" style=""width:8cm; height:7.53cm;""><p>What type of rock is this?</p>","1","class_response","0","test","13","Basalt","Basalt","04","true","2","2","","","","","","","","","","","","","","",""
"","","","","","","","","","","","html-keyboard-response","32","2.0.0","213590","62c44d672834a5c5ce7362f1","3","45","null","","","","","","","","","<p style='font-size: 30px;'><strong>Okay</strong></p>","null","neutral_feedback","0","test","13","","","","","","","","","","","","","","","","","","","","",""
"","","","","","","","","","","","html-button-response","33","2.0.0","217869","62c44d672834a5c5ce7362f1","3","45","4278","","","","","","","","","<img src= ""rock_img/I_Diorite_07.jpg"" style=""width:8cm; height:5.239999999999999cm;""><p>What type of rock is this?</p>","2","class_response","0","test","14","Diorite","Diorite","07","true","3","3","","","","","","","","","","","","","","",""
"","","","","","","","","","","","html-keyboard-response","34","2.0.0","218372","62c44d672834a5c5ce7362f1","3","45","null","","","","","","","","","<p style='font-size: 30px;'><strong>Okay</strong></p>","null","neutral_feedback","0","test","14","","","","","","","","","","","","","","","","","","","","",""
"","","","","","","","","","","","html-button-response","35","2.0.0","220321","62c44d672834a5c5ce7362f1","3","45","1948","","","","","","","","","<img src= ""rock_img/I_Diorite_10.jpg"" style=""width:8cm; height:5.949999999999999cm;""><p>What type of rock is this?</p>","6","class_response","0","test","15","Peridotite","Diorite","10","false","7","3","","","","","","","","","","","","","","",""
"","","","","","","","","","","","html-keyboard-response","36","2.0.0","220831","62c44d672834a5c5ce7362f1","3","45","null","","","","","","","","","<p style='font-size: 30px;'><strong>Okay</strong></p>","null","neutral_feedback","0","test","15","","","","","","","","","","","","","","","","","","","","",""
"","","","","","","","","","","","html-button-response","37","2.0.0","223931","62c44d672834a5c5ce7362f1","3","45","3099","","","","","","","","","<img src= ""rock_img/I_Peridotite_07.jpg"" style=""width:8cm; height:4.83cm;""><p>What type of rock is this?</p>","5","class_response","0","test","16","Pegmatite","Peridotite","07","false","6","7","","","","","","","","","","","","","","",""
"","","","","","","","","","","","html-keyboard-response","38","2.0.0","224448","62c44d672834a5c5ce7362f1","3","45","null","","","","","","","","","<p style='font-size: 30px;'><strong>Okay</strong></p>","null","neutral_feedback","0","test","16","","","","","","","","","","","","","","","","","","","","",""
"","","","","","","","","","","","html-button-response","39","2.0.0","226399","62c44d672834a5c5ce7362f1","3","45","1950","","","","","","","","","<img src= ""rock_img/I_Peridotite_10.jpg"" style=""width:8cm; height:5.390000000000001cm;""><p>What type of rock is this?</p>","5","class_response","0","test","17","Pegmatite","Peridotite","10","false","6","7","","","","","","","","","","","","","","",""
"","","","","","","","","","","","html-keyboard-response","40","2.0.0","226914","62c44d672834a5c5ce7362f1","3","45","null","","","","","","","","","<p style='font-size: 30px;'><strong>Okay</strong></p>","null","neutral_feedback","0","test","17","","","","","","","","","","","","","","","","","","","","",""
"","","","","","","","","","","","html-button-response","41","2.0.0","232664","62c44d672834a5c5ce7362f1","3","45","5747","","","","","","","","","<img src= ""rock_img/I_Andesite_03.jpg"" style=""width:8cm; height:5.73cm;""><p>What type of rock is this?</p>","1","class_response","0","test","18","Basalt","Andesite","03","false","2","1","","","","","","","","","","","","","","",""
"","","","","","","","","","","","html-keyboard-response","42","2.0.0","233166","62c44d672834a5c5ce7362f1","3","45","null","","","","","","","","","<p style='font-size: 30px;'><strong>Okay</strong></p>","null","neutral_feedback","0","test","18","","","","","","","","","","","","","","","","","","","","",""
"","","","","","","","","","","","html-button-response","43","2.0.0","235989","62c44d672834a5c5ce7362f1","3","45","2822","","","","","","","","","<img src= ""rock_img/I_Gabbro_15.jpg"" style=""width:8cm; height:6.29cm;""><p>What type of rock is this?</p>","0","class_response","0","test","19","Andesite","Gabbro","15","false","1","4","","","","","","","","","","","","","","",""
"","","","","","","","","","","","html-keyboard-response","44","2.0.0","236496","62c44d672834a5c5ce7362f1","3","45","null","","","","","","","","","<p style='font-size: 30px;'><strong>Okay</strong></p>","null","neutral_feedback","0","test","19","","","","","","","","","","","","","","","","","","","","",""
"","","","","","","","","","","","html-button-response","45","2.0.0","240421","62c44d672834a5c5ce7362f1","3","45","3924","","","","","","","","","<img src= ""rock_img/I_Gabbro_11.jpg"" style=""width:8cm; height:6.2cm;""><p>What type of rock is this?</p>","1","class_response","0","test","20","Basalt","Gabbro","11","false","2","4","","","","","","","","","","","","","","",""
"","","","","","","","","","","","html-keyboard-response","46","2.0.0","240929","62c44d672834a5c5ce7362f1","3","45","null","","","","","","","","","<p style='font-size: 30px;'><strong>Okay</strong></p>","null","neutral_feedback","0","test","20","","","","","","","","","","","","","","","","","","","","",""
"","","","","","","","","","","","html-button-response","47","2.0.0","243678","62c44d672834a5c5ce7362f1","3","45","2747","","","","","","","","","<img src= ""rock_img/I_Pumice_05.jpg"" style=""width:8cm; height:7.25cm;""><p>What type of rock is this?</p>","7","class_response","0","test","21","Pumice","Pumice","05","true","8","8","","","","","","","","","","","","","","",""
"","","","","","","","","","","","html-keyboard-response","48","2.0.0","244180","62c44d672834a5c5ce7362f1","3","45","null","","","","","","","","","<p style='font-size: 30px;'><strong>Okay</strong></p>","null","neutral_feedback","0","test","21","","","","","","","","","","","","","","","","","","","","",""
"","","","","","","","","","","","html-button-response","49","2.0.0","246675","62c44d672834a5c5ce7362f1","3","45","2494","","","","","","","","","<img src= ""rock_img/I_Pegmatite_15.jpg"" style=""width:8cm; height:6cm;""><p>What type of rock is this?</p>","0","class_response","0","test","22","Andesite","Pegmatite","15","false","1","6","","","","","","","","","","","","","","",""
"","","","","","","","","","","","html-keyboard-response","50","2.0.0","247188","62c44d672834a5c5ce7362f1","3","45","null","","","","","","","","","<p style='font-size: 30px;'><strong>Okay</strong></p>","null","neutral_feedback","0","test","22","","","","","","","","","","","","","","","","","","","","",""
"","","","","","","","","","","","html-button-response","51","2.0.0","250565","62c44d672834a5c5ce7362f1","3","45","3374","","","","","","","","","<img src= ""rock_img/I_Basalt_10.jpg"" style=""width:8cm; height:5.85cm;""><p>What type of rock is this?</p>","1","class_response","0","test","23","Basalt","Basalt","10","true","2","2","","","","","","","","","","","","","","",""
"","","","","","","","","","","","html-keyboard-response","52","2.0.0","251079","62c44d672834a5c5ce7362f1","3","45","null","","","","","","","","","<p style='font-size: 30px;'><strong>Okay</strong></p>","null","neutral_feedback","0","test","23","","","","","","","","","","","","","","","","","","","","",""
"","","","","","","","","","","","html-button-response","53","2.0.0","252569","62c44d672834a5c5ce7362f1","3","45","1488","","","","","","","","","<img src= ""rock_img/I_Obsidian_16.jpg"" style=""width:8cm; height:9.3cm;""><p>What type of rock is this?</p>","4","class_response","0","test","24","Obsidian","Obsidian","16","true","5","5","","","","","","","","","","","","","","",""
"","","","","","","","","","","","html-keyboard-response","54","2.0.0","253071","62c44d672834a5c5ce7362f1","3","45","null","","","","","","","","","<p style='font-size: 30px;'><strong>Okay</strong></p>","null","neutral_feedback","0","test","24","","","","","","","","","","","","","","","","","","","","",""
"","","","","","","","","","","","html-button-response","55","2.0.0","256137","62c44d672834a5c5ce7362f1","3","45","3065","","","","","","","","","<img src= ""rock_img/I_Pegmatite_08.jpg"" style=""width:8cm; height:7.68cm;""><p>What type of rock is this?</p>","2","class_response","0","test","25","Diorite","Pegmatite","08","false","3","6","","","","","","","","","","","","","","",""
"","","","","","","","","","","","html-keyboard-response","56","2.0.0","256653","62c44d672834a5c5ce7362f1","3","45","null","","","","","","","","","<p style='font-size: 30px;'><strong>Okay</strong></p>","null","neutral_feedback","0","test","25","","","","","","","","","","","","","","","","","","","","",""
"","","","","","","","","","","","html-button-response","57","2.0.0","259279","62c44d672834a5c5ce7362f1","3","45","2624","","","","","","","","","<img src= ""rock_img/I_Basalt_06.jpg"" style=""width:8cm; height:7.06cm;""><p>What type of rock is this?</p>","1","class_response","0","test","26","Basalt","Basalt","06","true","2","2","","","","","","","","","","","","","","",""
"","","","","","","","","","","","html-keyboard-response","58","2.0.0","259781","62c44d672834a5c5ce7362f1","3","45","null","","","","","","","","","<p style='font-size: 30px;'><strong>Okay</strong></p>","null","neutral_feedback","0","test","26","","","","","","","","","","","","","","","","","","","","",""
"","","","","","","","","","","","html-button-response","59","2.0.0","267964","62c44d672834a5c5ce7362f1","3","45","8180","","","","","","","","","<img src= ""rock_img/I_Diorite_02.jpg"" style=""width:8cm; height:6.27cm;""><p>What type of rock is this?</p>","3","class_response","0","test","27","Gabbro","Diorite","02","false","4","3","","","","","","","","","","","","","","",""
"","","","","","","","","","","","html-keyboard-response","60","2.0.0","268473","62c44d672834a5c5ce7362f1","3","45","null","","","","","","","","","<p style='font-size: 30px;'><strong>Okay</strong></p>","null","neutral_feedback","0","test","27","","","","","","","","","","","","","","","","","","","","",""
"","","","","","","","","","","","html-button-response","61","2.0.0","270909","62c44d672834a5c5ce7362f1","3","45","2434","","","","","","","","","<img src= ""rock_img/I_Basalt_11.jpg"" style=""width:8cm; height:5.359999999999999cm;""><p>What type of rock is this?</p>","7","class_response","0","test","28","Pumice","Basalt","11","false","8","2","","","","","","","","","","","","","","",""
"","","","","","","","","","","","html-keyboard-response","62","2.0.0","271411","62c44d672834a5c5ce7362f1","3","45","null","","","","","","","","","<p style='font-size: 30px;'><strong>Okay</strong></p>","null","neutral_feedback","0","test","28","","","","","","","","","","","","","","","","","","","","",""
"","","","","","","","","","","","html-button-response","63","2.0.0","273123","62c44d672834a5c5ce7362f1","3","45","1711","","","","","","","","","<img src= ""rock_img/I_Basalt_14.jpg"" style=""width:8cm; height:5.82cm;""><p>What type of rock is this?</p>","4","class_response","0","test","29","Obsidian","Basalt","14","false","5","2","","","","","","","","","","","","","","",""
"","","","","","","","","","","","html-keyboard-response","64","2.0.0","273626","62c44d672834a5c5ce7362f1","3","45","null","","","","","","","","","<p style='font-size: 30px;'><strong>Okay</strong></p>","null","neutral_feedback","0","test","29","","","","","","","","","","","","","","","","","","","","",""
"","","","","","","","","","","","html-button-response","65","2.0.0","279927","62c44d672834a5c5ce7362f1","3","45","6300","","","","","","","","","<img src= ""rock_img/I_Diorite_14.jpg"" style=""width:8cm; height:5.71cm;""><p>What type of rock is this?</p>","2","class_response","0","test","30","Diorite","Diorite","14","true","3","3","","","","","","","","","","","","","","",""
"","","","","","","","","","","","html-keyboard-response","66","2.0.0","280436","62c44d672834a5c5ce7362f1","3","45","null","","","","","","","","","<p style='font-size: 30px;'><strong>Okay</strong></p>","null","neutral_feedback","0","test","30","","","","","","","","","","","","","","","","","","","","",""
"","","","","","","","","","","","html-button-response","67","2.0.0","281754","62c44d672834a5c5ce7362f1","3","45","1316","","","","","","","","","<img src= ""rock_img/I_Gabbro_16.jpg"" style=""width:8cm; height:6.44cm;""><p>What type of rock is this?</p>","1","class_response","0","test","31","Basalt","Gabbro","16","false","2","4","","","","","","","","","","","","","","",""
"","","","","","","","","","","","html-keyboard-response","68","2.0.0","282256","62c44d672834a5c5ce7362f1","3","45","null","","","","","","","","","<p style='font-size: 30px;'><strong>Okay</strong></p>","null","neutral_feedback","0","test","31","","","","","","","","","","","","","","","","","","","","",""
"","","","","","","","","","","","html-button-response","69","2.0.0","284003","62c44d672834a5c5ce7362f1","3","45","1746","","","","","","","","","<img src= ""rock_img/I_Pumice_15.jpg"" style=""width:8cm; height:7.86cm;""><p>What type of rock is this?</p>","7","class_response","0","test","32","Pumice","Pumice","15","true","8","8","","","","","","","","","","","","","","",""
"","","","","","","","","","","","html-keyboard-response","70","2.0.0","284505","62c44d672834a5c5ce7362f1","3","45","null","","","","","","","","","<p style='font-size: 30px;'><strong>Okay</strong></p>","null","neutral_feedback","0","test","32","","","","","","","","","","","","","","","","","","","","",""
"","","","","","","","","","","","html-button-response","71","2.0.0","287261","62c44d672834a5c5ce7362f1","3","45","2754","","","","","","","","","<img src= ""rock_img/I_Pegmatite_06.jpg"" style=""width:8cm; height:5.17cm;""><p>What type of rock is this?</p>","0","class_response","0","test","33","Andesite","Pegmatite","06","false","1","6","","","","","","","","","","","","","","",""
"","","","","","","","","","","","html-keyboard-response","72","2.0.0","287769","62c44d672834a5c5ce7362f1","3","45","null","","","","","","","","","<p style='font-size: 30px;'><strong>Okay</strong></p>","null","neutral_feedback","0","test","33","","","","","","","","","","","","","","","","","","","","",""
"","","","","","","","","","","","html-button-response","73","2.0.0","289713","62c44d672834a5c5ce7362f1","3","45","1943","","","","","","","","","<img src= ""rock_img/I_Pumice_08.jpg"" style=""width:8cm; height:6.67cm;""><p>What type of rock is this?</p>","7","class_response","0","test","34","Pumice","Pumice","08","true","8","8","","","","","","","","","","","","","","",""
"","","","","","","","","","","","html-keyboard-response","74","2.0.0","290216","62c44d672834a5c5ce7362f1","3","45","null","","","","","","","","","<p style='font-size: 30px;'><strong>Okay</strong></p>","null","neutral_feedback","0","test","34","","","","","","","","","","","","","","","","","","","","",""
"","","","","","","","","","","","html-button-response","75","2.0.0","292879","62c44d672834a5c5ce7362f1","3","45","2661","","","","","","","","","<img src= ""rock_img/I_Andesite_06.jpg"" style=""width:8cm; height:6.840000000000001cm;""><p>What type of rock is this?</p>","5","class_response","0","test","35","Pegmatite","Andesite","06","false","6","1","","","","","","","","","","","","","","",""
"","","","","","","","","","","","html-keyboard-response","76","2.0.0","293389","62c44d672834a5c5ce7362f1","3","45","null","","","","","","","","","<p style='font-size: 30px;'><strong>Okay</strong></p>","null","neutral_feedback","0","test","35","","","","","","","","","","","","","","","","","","","","",""
"","","","","","","","","","","","html-button-response","77","2.0.0","296850","62c44d672834a5c5ce7362f1","3","45","3459","","","","","","","","","<img src= ""rock_img/I_Diorite_09.jpg"" style=""width:8cm; height:5.27cm;""><p>What type of rock is this?</p>","3","class_response","0","test","36","Gabbro","Diorite","09","false","4","3","","","","","","","","","","","","","","",""
"","","","","","","","","","","","html-keyboard-response","78","2.0.0","297351","62c44d672834a5c5ce7362f1","3","45","null","","","","","","","","","<p style='font-size: 30px;'><strong>Okay</strong></p>","null","neutral_feedback","0","test","36","","","","","","","","","","","","","","","","","","","","",""
"","","","","","","","","","","","html-button-response","79","2.0.0","302540","62c44d672834a5c5ce7362f1","3","45","5186","","","","","","","","","<img src= ""rock_img/I_Pegmatite_05.jpg"" style=""width:8cm; height:7.300000000000001cm;""><p>What type of rock is this?</p>","0","class_response","0","test","37","Andesite","Pegmatite","05","false","1","6","","","","","","","","","","","","","","",""
"","","","","","","","","","","","html-keyboard-response","80","2.0.0","303052","62c44d672834a5c5ce7362f1","3","45","null","","","","","","","","","<p style='font-size: 30px;'><strong>Okay</strong></p>","null","neutral_feedback","0","test","37","","","","","","","","","","","","","","","","","","","","",""
"","","","","","","","","","","","html-button-response","81","2.0.0","304552","62c44d672834a5c5ce7362f1","3","45","1498","","","","","","","","","<img src= ""rock_img/I_Obsidian_08.jpg"" style=""width:8cm; height:7.39cm;""><p>What type of rock is this?</p>","4","class_response","0","test","38","Obsidian","Obsidian","08","true","5","5","","","","","","","","","","","","","","",""
"","","","","","","","","","","","html-keyboard-response","82","2.0.0","305067","62c44d672834a5c5ce7362f1","3","45","null","","","","","","","","","<p style='font-size: 30px;'><strong>Okay</strong></p>","null","neutral_feedback","0","test","38","","","","","","","","","","","","","","","","","","","","",""
"","","","","","","","","","","","html-button-response","83","2.0.0","308238","62c44d672834a5c5ce7362f1","3","45","3170","","","","","","","","","<img src= ""rock_img/I_Pumice_02.jpg"" style=""width:8cm; height:7.3999999999999995cm;""><p>What type of rock is this?</p>","7","class_response","0","test","39","Pumice","Pumice","02","true","8","8","","","","","","","","","","","","","","",""
"","","","","","","","","","","","html-keyboard-response","84","2.0.0","308753","62c44d672834a5c5ce7362f1","3","45","null","","","","","","","","","<p style='font-size: 30px;'><strong>Okay</strong></p>","null","neutral_feedback","0","test","39","","","","","","","","","","","","","","","","","","","","",""
"","","","","","","","","","","","html-button-response","85","2.0.0","312701","62c44d672834a5c5ce7362f1","3","45","3946","","","","","","","","","<img src= ""rock_img/I_Pegmatite_13.jpg"" style=""width:8cm; height:4.95cm;""><p>What type of rock is this?</p>","2","class_response","0","test","40","Diorite","Pegmatite","13","false","3","6","","","","","","","","","","","","","","",""
"","","","","","","","","","","","html-keyboard-response","86","2.0.0","313210","62c44d672834a5c5ce7362f1","3","45","null","","","","","","","","","<p style='font-size: 30px;'><strong>Okay</strong></p>","null","neutral_feedback","0","test","40","","","","","","","","","","","","","","","","","","","","",""
"","","","","","","","","","","","html-button-response","87","2.0.0","314845","62c44d672834a5c5ce7362f1","3","45","1634","","","","","","","","","<img src= ""rock_img/I_Obsidian_12.jpg"" style=""width:8cm; height:6.53cm;""><p>What type of rock is this?</p>","4","class_response","0","test","41","Obsidian","Obsidian","12","true","5","5","","","","","","","","","","","","","","",""
"","","","","","","","","","","","html-keyboard-response","88","2.0.0","315349","62c44d672834a5c5ce7362f1","3","45","null","","","","","","","","","<p style='font-size: 30px;'><strong>Okay</strong></p>","null","neutral_feedback","0","test","41","","","","","","","","","","","","","","","","","","","","",""
"","","","","","","","","","","","html-button-response","89","2.0.0","316949","62c44d672834a5c5ce7362f1","3","45","1599","","","","","","","","","<img src= ""rock_img/I_Pegmatite_10.jpg"" style=""width:8cm; height:4.16cm;""><p>What type of rock is this?</p>","6","class_response","0","test","42","Peridotite","Pegmatite","10","false","7","6","","","","","","","","","","","","","","",""
"","","","","","","","","","","","html-keyboard-response","90","2.0.0","317457","62c44d672834a5c5ce7362f1","3","45","null","","","","","","","","","<p style='font-size: 30px;'><strong>Okay</strong></p>","null","neutral_feedback","0","test","42","","","","","","","","","","","","","","","","","","","","",""
"","","","","","","","","","","","html-button-response","91","2.0.0","321029","62c44d672834a5c5ce7362f1","3","45","3570","","","","","","","","","<img src= ""rock_img/I_Andesite_01.jpg"" style=""width:8cm; height:5.87cm;""><p>What type of rock is this?</p>","1","class_response","0","test","43","Basalt","Andesite","01","false","2","1","","","","","","","","","","","","","","",""
"","","","","","","","","","","","html-keyboard-response","92","2.0.0","321533","62c44d672834a5c5ce7362f1","3","45","null","","","","","","","","","<p style='font-size: 30px;'><strong>Okay</strong></p>","null","neutral_feedback","0","test","43","","","","","","","","","","","","","","","","","","","","",""
"","","","","","","","","","","","html-button-response","93","2.0.0","327484","62c44d672834a5c5ce7362f1","3","45","5949","","","","","","","","","<img src= ""rock_img/I_Gabbro_05.jpg"" style=""width:8cm; height:6cm;""><p>What type of rock is this?</p>","3","class_response","0","test","44","Gabbro","Gabbro","05","true","4","4","","","","","","","","","","","","","","",""
"","","","","","","","","","","","html-keyboard-response","94","2.0.0","328001","62c44d672834a5c5ce7362f1","3","45","null","","","","","","","","","<p style='font-size: 30px;'><strong>Okay</strong></p>","null","neutral_feedback","0","test","44","","","","","","","","","","","","","","","","","","","","",""
"","","","","","","","","","","","html-button-response","95","2.0.0","329866","62c44d672834a5c5ce7362f1","3","45","1863","","","","","","","","","<img src= ""rock_img/I_Peridotite_12.jpg"" style=""width:8cm; height:4.54cm;""><p>What type of rock is this?</p>","7","class_response","0","test","45","Pumice","Peridotite","12","false","8","7","","","","","","","","","","","","","","",""
"","","","","","","","","","","","html-keyboard-response","96","2.0.0","330369","62c44d672834a5c5ce7362f1","3","45","null","","","","","","","","","<p style='font-size: 30px;'><strong>Okay</strong></p>","null","neutral_feedback","0","test","45","","","","","","","","","","","","","","","","","","","","",""
"","","","","","","","","","","","html-button-response","97","2.0.0","331695","62c44d672834a5c5ce7362f1","3","45","1325","","","","","","","","","<img src= ""rock_img/I_Obsidian_14.jpg"" style=""width:8cm; height:7.64cm;""><p>What type of rock is this?</p>","4","class_response","0","test","46","Obsidian","Obsidian","14","true","5","5","","","","","","","","","","","","","","",""
"","","","","","","","","","","","html-keyboard-response","98","2.0.0","332197","62c44d672834a5c5ce7362f1","3","45","null","","","","","","","","","<p style='font-size: 30px;'><strong>Okay</strong></p>","null","neutral_feedback","0","test","46","","","","","","","","","","","","","","","","","","","","",""
"","","","","","","","","","","","html-button-response","99","2.0.0","333962","62c44d672834a5c5ce7362f1","3","45","1763","","","","","","","","","<img src= ""rock_img/I_Diorite_11.jpg"" style=""width:8cm; height:7.11cm;""><p>What type of rock is this?</p>","6","class_response","0","test","47","Peridotite","Diorite","11","false","7","3","","","","","","","","","","","","","","",""
"","","","","","","","","","","","html-keyboard-response","100","2.0.0","334463","62c44d672834a5c5ce7362f1","3","45","null","","","","","","","","","<p style='font-size: 30px;'><strong>Okay</strong></p>","null","neutral_feedback","0","test","47","","","","","","","","","","","","","","","","","","","","",""
"","","","","","","","","","","","html-button-response","101","2.0.0","336110","62c44d672834a5c5ce7362f1","3","45","1645","","","","","","","","","<img src= ""rock_img/I_Pumice_14.jpg"" style=""width:8cm; height:6.39cm;""><p>What type of rock is this?</p>","7","class_response","0","test","48","Pumice","Pumice","14","true","8","8","","","","","","","","","","","","","","",""
"","","","","","","","","","","","html-keyboard-response","102","2.0.0","336611","62c44d672834a5c5ce7362f1","3","45","null","","","","","","","","","<p style='font-size: 30px;'><strong>Okay</strong></p>","null","neutral_feedback","0","test","48","","","","","","","","","","","","","","","","","","","","",""
"","","","","","","","","","","","instructions","103","2.0.0","355811","62c44d672834a5c5ce7362f1","3","45","19175","","","","","","","","[{""page_index"":0,""viewing_time"":12647},{""page_index"":1,""viewing_time"":6528}]","","","","","","","","","","","","","","","","","","","","","","","","","","",""
"","","","","","","","","","","","html-button-response","104","2.0.0","362857","62c44d672834a5c5ce7362f1","3","45","7044","","","","","","","","","","0","start_train","","","","","","","","","","","","","","","","","","","","","","","",""
"","","","","","","","","","","","html-button-response","106","2.0.0","366872","62c44d672834a5c5ce7362f1","3","45","4011","","","","","","","","","<img src= ""rock_img/I_Pegmatite_07.jpg"" style=""width:8cm; height:6.7cm;""><p>What type of rock is this?</p>","3","class_response","1","train","1","Gabbro","Pegmatite","07","false","4","6","","","","","","","","","","","","","","",""
"","","","","","","","","","","","html-button-response","107","2.0.0","383581","62c44d672834a5c5ce7362f1","3","45","16707","","","","","","","","","<img src= rock_img/I_Pegmatite_07.jpg style=""width:8cm; height:6.7cm;""><p style='font-size: 30px; color: red;'><strong>Incorrect!</strong></p><p style='font-size: 30px;'><strong>This rock is pegmatite</strong></p>","0","corr_feedback","1","train","1","","","","","","","","","","","","","","","","","","","","",""
"","","","","","","","","","","","html-button-response","108","2.0.0","386153","62c44d672834a5c5ce7362f1","3","45","2570","","","","","","","","","<img src= ""rock_img/I_Basalt_05.jpg"" style=""width:8cm; height:8.18cm;""><p>What type of rock is this?</p>","1","class_response","1","train","2","Basalt","Basalt","05","true","2","2","","","","","","","","","","","","","","",""
"","","","","","","","","","","","html-button-response","109","2.0.0","391353","62c44d672834a5c5ce7362f1","3","45","5198","","","","","","","","","<img src= rock_img/I_Basalt_05.jpg style=""width:8cm; height:8.18cm;""><p style='font-size: 30px; color: green;'><strong>Correct!</strong></p><p style='font-size: 30px;'><strong>This rock is basalt</strong></p>","0","corr_feedback","1","train","2","","","","","","","","","","","","","","","","","","","","",""
"","","","","","","","","","","","html-button-response","110","2.0.0","397270","62c44d672834a5c5ce7362f1","3","45","5914","","","","","","","","","<img src= ""rock_img/I_Peridotite_14.jpg"" style=""width:8cm; height:5.3cm;""><p>What type of rock is this?</p>","2","class_response","1","train","3","Diorite","Peridotite","14","false","3","7","","","","","","","","","","","","","","",""
"","","","","","","","","","","","html-button-response","111","2.0.0","402499","62c44d672834a5c5ce7362f1","3","45","5227","","","","","","","","","<img src= rock_img/I_Peridotite_14.jpg style=""width:8cm; height:5.3cm;""><p style='font-size: 30px; color: red;'><strong>Incorrect!</strong></p><p style='font-size: 30px;'><strong>This rock is peridotite</strong></p>","0","corr_feedback","1","train","3","","","","","","","","","","","","","","","","","","","","",""
"","","","","","","","","","","","html-button-response","112","2.0.0","404578","62c44d672834a5c5ce7362f1","3","45","2076","","","","","","","","","<img src= ""rock_img/I_Obsidian_06.jpg"" style=""width:8cm; height:6.8cm;""><p>What type of rock is this?</p>","4","class_response","1","train","4","Obsidian","Obsidian","06","true","5","5","","","","","","","","","","","","","","",""
"","","","","","","","","","","","html-button-response","113","2.0.0","406021","62c44d672834a5c5ce7362f1","3","45","1442","","","","","","","","","<img src= rock_img/I_Obsidian_06.jpg style=""width:8cm; height:6.8cm;""><p style='font-size: 30px; color: green;'><strong>Correct!</strong></p><p style='font-size: 30px;'><strong>This rock is obsidian</strong></p>","0","corr_feedback","1","train","4","","","","","","","","","","","","","","","","","","","","",""
"","","","","","","","","","","","html-button-response","114","2.0.0","409840","62c44d672834a5c5ce7362f1","3","45","3816","","","","","","","","","<img src= ""rock_img/I_Gabbro_13.jpg"" style=""width:8cm; height:5.08cm;""><p>What type of rock is this?</p>","3","class_response","1","train","5","Gabbro","Gabbro","13","true","4","4","","","","","","","","","","","","","","",""
"","","","","","","","","","","","html-button-response","115","2.0.0","415099","62c44d672834a5c5ce7362f1","3","45","5258","","","","","","","","","<img src= rock_img/I_Gabbro_13.jpg style=""width:8cm; height:5.08cm;""><p style='font-size: 30px; color: green;'><strong>Correct!</strong></p><p style='font-size: 30px;'><strong>This rock is gabbro</strong></p>","0","corr_feedback","1","train","5","","","","","","","","","","","","","","","","","","","","",""
"","","","","","","","","","","","html-button-response","116","2.0.0","417005","62c44d672834a5c5ce7362f1","3","45","1904","","","","","","","","","<img src= ""rock_img/I_Peridotite_02.jpg"" style=""width:8cm; height:5.859999999999999cm;""><p>What type of rock is this?</p>","7","class_response","1","train","6","Pumice","Peridotite","02","false","8","7","","","","","","","","","","","","","","",""
"","","","","","","","","","","","html-button-response","117","2.0.0","422195","62c44d672834a5c5ce7362f1","3","45","5188","","","","","","","","","<img src= rock_img/I_Peridotite_02.jpg style=""width:8cm; height:5.859999999999999cm;""><p style='font-size: 30px; color: red;'><strong>Incorrect!</strong></p><p style='font-size: 30px;'><strong>This rock is peridotite</strong></p>","0","corr_feedback","1","train","6","","","","","","","","","","","","","","","","","","","","",""
"","","","","","","","","","","","html-button-response","118","2.0.0","425484","62c44d672834a5c5ce7362f1","3","45","3286","","","","","","","","","<img src= ""rock_img/I_Andesite_04.jpg"" style=""width:8cm; height:5.96cm;""><p>What type of rock is this?</p>","0","class_response","1","train","7","Andesite","Andesite","04","true","1","1","","","","","","","","","","","","","","",""
"","","","","","","","","","","","html-button-response","119","2.0.0","430705","62c44d672834a5c5ce7362f1","3","45","5220","","","","","","","","","<img src= rock_img/I_Andesite_04.jpg style=""width:8cm; height:5.96cm;""><p style='font-size: 30px; color: green;'><strong>Correct!</strong></p><p style='font-size: 30px;'><strong>This rock is andesite</strong></p>","0","corr_feedback","1","train","7","","","","","","","","","","","","","","","","","","","","",""
"","","","","","","","","","","","html-button-response","120","2.0.0","433433","62c44d672834a5c5ce7362f1","3","45","2726","","","","","","","","","<img src= ""rock_img/I_Pumice_06.jpg"" style=""width:8cm; height:6.9399999999999995cm;""><p>What type of rock is this?</p>","7","class_response","1","train","8","Pumice","Pumice","06","true","8","8","","","","","","","","","","","","","","",""
"","","","","","","","","","","","html-button-response","121","2.0.0","434855","62c44d672834a5c5ce7362f1","3","45","1420","","","","","","","","","<img src= rock_img/I_Pumice_06.jpg style=""width:8cm; height:6.9399999999999995cm;""><p style='font-size: 30px; color: green;'><strong>Correct!</strong></p><p style='font-size: 30px;'><strong>This rock is pumice</strong></p>","0","corr_feedback","1","train","8","","","","","","","","","","","","","","","","","","","","",""
"","","","","","","","","","","","html-button-response","122","2.0.0","437731","62c44d672834a5c5ce7362f1","3","45","2874","","","","","","","","","<img src= ""rock_img/I_Gabbro_09.jpg"" style=""width:8cm; height:7.279999999999999cm;""><p>What type of rock is this?</p>","1","class_response","1","train","9","Basalt","Gabbro","09","false","2","4","","","","","","","","","","","","","","",""
"","","","","","","","","","","","html-button-response","123","2.0.0","443285","62c44d672834a5c5ce7362f1","3","45","5552","","","","","","","","","<img src= rock_img/I_Gabbro_09.jpg style=""width:8cm; height:7.279999999999999cm;""><p style='font-size: 30px; color: red;'><strong>Incorrect!</strong></p><p style='font-size: 30px;'><strong>This rock is gabbro</strong></p>","0","corr_feedback","1","train","9","","","","","","","","","","","","","","","","","","","","",""
"","","","","","","","","","","","html-button-response","124","2.0.0","450599","62c44d672834a5c5ce7362f1","3","45","7311","","","","","","","","","<img src= ""rock_img/I_Pegmatite_11.jpg"" style=""width:8cm; height:8.14cm;""><p>What type of rock is this?</p>","5","class_response","1","train","10","Pegmatite","Pegmatite","11","true","6","6","","","","","","","","","","","","","","",""
"","","","","","","","","","","","html-button-response","125","2.0.0","457945","62c44d672834a5c5ce7362f1","3","45","7345","","","","","","","","","<img src= rock_img/I_Pegmatite_11.jpg style=""width:8cm; height:8.14cm;""><p style='font-size: 30px; color: green;'><strong>Correct!</strong></p><p style='font-size: 30px;'><strong>This rock is pegmatite</strong></p>","0","corr_feedback","1","train","10","","","","","","","","","","","","","","","","","","","","",""
"","","","","","","","","","","","html-button-response","126","2.0.0","465279","62c44d672834a5c5ce7362f1","3","45","7332","","","","","","","","","<img src= ""rock_img/I_Diorite_16.jpg"" style=""width:8cm; height:6.74cm;""><p>What type of rock is this?</p>","0","class_response","1","train","11","Andesite","Diorite","16","false","1","3","","","","","","","","","","","","","","",""
"","","","","","","","","","","","html-button-response","127","2.0.0","470655","62c44d672834a5c5ce7362f1","3","45","5374","","","","","","","","","<img src= rock_img/I_Diorite_16.jpg style=""width:8cm; height:6.74cm;""><p style='font-size: 30px; color: red;'><strong>Incorrect!</strong></p><p style='font-size: 30px;'><strong>This rock is diorite</strong></p>","0","corr_feedback","1","train","11","","","","","","","","","","","","","","","","","","","","",""
"","","","","","","","","","","","html-button-response","128","2.0.0","472637","62c44d672834a5c5ce7362f1","3","45","1981","","","","","","","","","<img src= ""rock_img/I_Basalt_12.jpg"" style=""width:8cm; height:6.010000000000001cm;""><p>What type of rock is this?</p>","7","class_response","1","train","12","Pumice","Basalt","12","false","8","2","","","","","","","","","","","","","","",""
"","","","","","","","","","","","html-button-response","129","2.0.0","478050","62c44d672834a5c5ce7362f1","3","45","5411","","","","","","","","","<img src= rock_img/I_Basalt_12.jpg style=""width:8cm; height:6.010000000000001cm;""><p style='font-size: 30px; color: red;'><strong>Incorrect!</strong></p><p style='font-size: 30px;'><strong>This rock is basalt</strong></p>","0","corr_feedback","1","train","12","","","","","","","","","","","","","","","","","","","","",""
"","","","","","","","","","","","instructions","130","2.0.0","509215","62c44d672834a5c5ce7362f1","3","45","31164","","","","","","","","[{""page_index"":0,""viewing_time"":4830},{""page_index"":1,""viewing_time"":9472},{""page_index"":2,""viewing_time"":11782},{""page_index"":3,""viewing_time"":5080}]","","","","","","","","","","","","","","","","","","","","","","","","","","",""
"","","","","","","","","","","","html-button-response","131","2.0.0","510939","62c44d672834a5c5ce7362f1","3","45","1721","","","","","","","","","","0","start_train","","","","","","","","","","","","","","","","","","","","","","","",""
"","","","","","","","","","","","html-button-response","132","2.0.0","515191","62c44d672834a5c5ce7362f1","3","45","","","","","","","","","","","","cat_selection","1","train","1","","","","","","","6","7","4249.899999976158","Pegmatite","Peridotite","[0.20454545454545456,0.08333333333333334,0.14393939393939395,0.14393939393939395,0.022727272727272728,0.20454545454545456,0.17424242424242425,0.022727272727272728]","[0.36215137857370167,0.048932843973837736,0.2725969036991398,0.06213271196678034,0.056954985969548635,null,0.15523159583944715,0.04199957997754465]","","","","","","","",""
"","","","","","","","","","","","paired-cat-display","133","1.0.0","584992","62c44d672834a5c5ce7362f1","3","45","","","","","","","","","","","","paired_cat_display","1","train","1","","","","","","","","","7274.5999999940395","","","","","Has ""occlusions"". Almost crystal-like structure.","Grainy-looking. Shades of green. No occlusions.","62520.30000001192","","","","",""
"","","","","","","","","","","","html-button-response","134","2.0.0","590665","62c44d672834a5c5ce7362f1","3","45","","","","","","","","","","","","cat_selection","1","train","2","","","","","","","1","6","5671.199999988079","Andesite","Pegmatite","[0.20454545454545456,0.08333333333333334,0.14393939393939395,0.14393939393939395,0.022727272727272728,0.20454545454545456,0.17424242424242425,0.022727272727272728]","[null,0.4699331944552107,0.14790688188166565,0.05448154164644045,0.059552545971136045,0.14852243731992348,0.05783289903251094,0.06177049969311272]","","","","","","","",""
"","","","","","","","","","","","paired-cat-display","135","1.0.0","640055","62c44d672834a5c5ce7362f1","3","45","","","","","","","","","","","","paired_cat_display","1","train","2","","","","","","","","","6085.299999982119","","","","","Has large occlusions. Crystal-like structure.","","43300.69999998808","Almost looks like a conglomerate. Maybe have a bubbly appearance.","","","",""
"","","","","","","","","","","","html-button-response","136","2.0.0","643303","62c44d672834a5c5ce7362f1","3","45","","","","","","","","","","","","cat_selection","1","train","3","","","","","","","1","2","3246.4000000059605","Andesite","Basalt","[0.20454545454545456,0.08333333333333334,0.14393939393939395,0.14393939393939395,0.022727272727272728,0.20454545454545456,0.17424242424242425,0.022727272727272728]","[null,0.4699331944552107,0.14790688188166565,0.05448154164644045,0.059552545971136045,0.14852243731992348,0.05783289903251094,0.06177049969311272]","","","","","","","",""
"","","","","","","","","","","","paired-cat-display","137","1.0.0","697583","62c44d672834a5c5ce7362f1","3","45","","","","","","","","","","","","paired_cat_display","1","train","3","","","","","","","","","6251.700000017881","","","","","","","48025.09999999404","Lighter color, conglomerate-like appearance.","Dark and uniform. Very hard.","","",""
"","","","","","","","","","","","instructions","138","2.0.0","713203","62c44d672834a5c5ce7362f1","3","45","15618","","","","","","","","[{""page_index"":0,""viewing_time"":5924},{""page_index"":1,""viewing_time"":9694}]","","","","","","","","","","","","","","","","","","","","","","","","","","",""
"","","","","","","","","","","","html-button-response","139","2.0.0","714913","62c44d672834a5c5ce7362f1","3","45","1708","","","","","","","","","","0","start_test","","","","","","","","","","","","","","","","","","","","","","","",""
"","","","","","","","","","","","html-button-response","140","2.0.0","717385","62c44d672834a5c5ce7362f1","3","45","2470","","","","","","","","","<img src= ""rock_img/I_Basalt_10.jpg"" style=""width:8cm; height:5.85cm;""><p>What type of rock is this?</p>","1","class_response","1","test","1","Basalt","Basalt","10","true","2","2","","","","","","","","","","","","","","",""
"","","","","","","","","","","","html-keyboard-response","141","2.0.0","717887","62c44d672834a5c5ce7362f1","3","45","null","","","","","","","","","<p style='font-size: 30px;'><strong>Okay</strong></p>","null","neutral_feedback","1","test","1","","","","","","","","","","","","","","","","","","","","",""
"","","","","","","","","","","","html-button-response","142","2.0.0","736532","62c44d672834a5c5ce7362f1","3","45","18643","","","","","","","","","<img src= ""rock_img/I_Pegmatite_08.jpg"" style=""width:8cm; height:7.68cm;""><p>What type of rock is this?</p>","5","class_response","1","test","2","Pegmatite","Pegmatite","08","true","6","6","","","","","","","","","","","","","","",""
"","","","","","","","","","","","html-keyboard-response","143","2.0.0","737034","62c44d672834a5c5ce7362f1","3","45","null","","","","","","","","","<p style='font-size: 30px;'><strong>Okay</strong></p>","null","neutral_feedback","1","test","2","","","","","","","","","","","","","","","","","","","","",""
"","","","","","","","","","","","html-button-response","144","2.0.0","738967","62c44d672834a5c5ce7362f1","3","45","1931","","","","","","","","","<img src= ""rock_img/I_Obsidian_08.jpg"" style=""width:8cm; height:7.39cm;""><p>What type of rock is this?</p>","4","class_response","1","test","3","Obsidian","Obsidian","08","true","5","5","","","","","","","","","","","","","","",""
"","","","","","","","","","","","html-keyboard-response","145","2.0.0","739469","62c44d672834a5c5ce7362f1","3","45","null","","","","","","","","","<p style='font-size: 30px;'><strong>Okay</strong></p>","null","neutral_feedback","1","test","3","","","","","","","","","","","","","","","","","","","","",""
"","","","","","","","","","","","html-button-response","146","2.0.0","762833","62c44d672834a5c5ce7362f1","3","45","23362","","","","","","","","","<img src= ""rock_img/I_Pumice_02.jpg"" style=""width:8cm; height:7.3999999999999995cm;""><p>What type of rock is this?</p>","0","class_response","1","test","4","Andesite","Pumice","02","false","1","8","","","","","","","","","","","","","","",""
"","","","","","","","","","","","html-keyboard-response","147","2.0.0","763335","62c44d672834a5c5ce7362f1","3","45","null","","","","","","","","","<p style='font-size: 30px;'><strong>Okay</strong></p>","null","neutral_feedback","1","test","4","","","","","","","","","","","","","","","","","","","","",""
"","","","","","","","","","","","html-button-response","148","2.0.0","764679","62c44d672834a5c5ce7362f1","3","45","1343","","","","","","","","","<img src= ""rock_img/I_Obsidian_11.jpg"" style=""width:8cm; height:6.05cm;""><p>What type of rock is this?</p>","4","class_response","1","test","5","Obsidian","Obsidian","11","true","5","5","","","","","","","","","","","","","","",""
"","","","","","","","","","","","html-keyboard-response","149","2.0.0","765183","62c44d672834a5c5ce7362f1","3","45","null","","","","","","","","","<p style='font-size: 30px;'><strong>Okay</strong></p>","null","neutral_feedback","1","test","5","","","","","","","","","","","","","","","","","","","","",""
"","","","","","","","","","","","html-button-response","150","2.0.0","778903","62c44d672834a5c5ce7362f1","3","45","13719","","","","","","","","","<img src= ""rock_img/I_Peridotite_07.jpg"" style=""width:8cm; height:4.83cm;""><p>What type of rock is this?</p>","0","class_response","1","test","6","Andesite","Peridotite","07","false","1","7","","","","","","","","","","","","","","",""
"","","","","","","","","","","","html-keyboard-response","151","2.0.0","779405","62c44d672834a5c5ce7362f1","3","45","null","","","","","","","","","<p style='font-size: 30px;'><strong>Okay</strong></p>","null","neutral_feedback","1","test","6","","","","","","","","","","","","","","","","","","","","",""
"","","","","","","","","","","","html-button-response","152","2.0.0","802885","62c44d672834a5c5ce7362f1","3","45","23478","","","","","","","","","<img src= ""rock_img/I_Gabbro_01.jpg"" style=""width:8cm; height:5.21cm;""><p>What type of rock is this?</p>","0","class_response","1","test","7","Andesite","Gabbro","01","false","1","4","","","","","","","","","","","","","","",""
"","","","","","","","","","","","html-keyboard-response","153","2.0.0","803388","62c44d672834a5c5ce7362f1","3","45","null","","","","","","","","","<p style='font-size: 30px;'><strong>Okay</strong></p>","null","neutral_feedback","1","test","7","","","","","","","","","","","","","","","","","","","","",""
"","","","","","","","","","","","html-button-response","154","2.0.0","824580","62c44d672834a5c5ce7362f1","3","45","21189","","","","","","","","","<img src= ""rock_img/I_Diorite_11.jpg"" style=""width:8cm; height:7.11cm;""><p>What type of rock is this?</p>","6","class_response","1","test","8","Peridotite","Diorite","11","false","7","3","","","","","","","","","","","","","","",""
"","","","","","","","","","","","html-keyboard-response","155","2.0.0","825082","62c44d672834a5c5ce7362f1","3","45","null","","","","","","","","","<p style='font-size: 30px;'><strong>Okay</strong></p>","null","neutral_feedback","1","test","8","","","","","","","","","","","","","","","","","","","","",""
"","","","","","","","","","","","html-button-response","156","2.0.0","831417","62c44d672834a5c5ce7362f1","3","45","6333","","","","","","","","","<img src= ""rock_img/I_Peridotite_08.jpg"" style=""width:8cm; height:6.7cm;""><p>What type of rock is this?</p>","3","class_response","1","test","9","Gabbro","Peridotite","08","false","4","7","","","","","","","","","","","","","","",""
"","","","","","","","","","","","html-keyboard-response","157","2.0.0","831928","62c44d672834a5c5ce7362f1","3","45","null","","","","","","","","","<p style='font-size: 30px;'><strong>Okay</strong></p>","null","neutral_feedback","1","test","9","","","","","","","","","","","","","","","","","","","","",""
"","","","","","","","","","","","html-button-response","158","2.0.0","833505","62c44d672834a5c5ce7362f1","3","45","1575","","","","","","","","","<img src= ""rock_img/I_Pumice_08.jpg"" style=""width:8cm; height:6.67cm;""><p>What type of rock is this?</p>","7","class_response","1","test","10","Pumice","Pumice","08","true","8","8","","","","","","","","","","","","","","",""
"","","","","","","","","","","","html-keyboard-response","159","2.0.0","834020","62c44d672834a5c5ce7362f1","3","45","null","","","","","","","","","<p style='font-size: 30px;'><strong>Okay</strong></p>","null","neutral_feedback","1","test","10","","","","","","","","","","","","","","","","","","","","",""
"","","","","","","","","","","","html-button-response","160","2.0.0","856303","62c44d672834a5c5ce7362f1","3","45","22281","","","","","","","","","<img src= ""rock_img/I_Pumice_14.jpg"" style=""width:8cm; height:6.39cm;""><p>What type of rock is this?</p>","0","class_response","1","test","11","Andesite","Pumice","14","false","1","8","","","","","","","","","","","","","","",""
"","","","","","","","","","","","html-keyboard-response","161","2.0.0","856805","62c44d672834a5c5ce7362f1","3","45","null","","","","","","","","","<p style='font-size: 30px;'><strong>Okay</strong></p>","null","neutral_feedback","1","test","11","","","","","","","","","","","","","","","","","","","","",""
"","","","","","","","","","","","html-button-response","162","2.0.0","861207","62c44d672834a5c5ce7362f1","3","45","4400","","","","","","","","","<img src= ""rock_img/I_Andesite_10.jpg"" style=""width:8cm; height:4.16cm;""><p>What type of rock is this?</p>","1","class_response","1","test","12","Basalt","Andesite","10","false","2","1","","","","","","","","","","","","","","",""
"","","","","","","","","","","","html-keyboard-response","163","2.0.0","861713","62c44d672834a5c5ce7362f1","3","45","null","","","","","","","","","<p style='font-size: 30px;'><strong>Okay</strong></p>","null","neutral_feedback","1","test","12","","","","","","","","","","","","","","","","","","","","",""
"","","","","","","","","","","","html-button-response","164","2.0.0","863043","62c44d672834a5c5ce7362f1","3","45","1329","","","","","","","","","<img src= ""rock_img/I_Obsidian_16.jpg"" style=""width:8cm; height:9.3cm;""><p>What type of rock is this?</p>","4","class_response","1","test","13","Obsidian","Obsidian","16","true","5","5","","","","","","","","","","","","","","",""
"","","","","","","","","","","","html-keyboard-response","165","2.0.0","863546","62c44d672834a5c5ce7362f1","3","45","null","","","","","","","","","<p style='font-size: 30px;'><strong>Okay</strong></p>","null","neutral_feedback","1","test","13","","","","","","","","","","","","","","","","","","","","",""
"","","","","","","","","","","","html-button-response","166","2.0.0","868855","62c44d672834a5c5ce7362f1","3","45","5308","","","","","","","","","<img src= ""rock_img/I_Basalt_11.jpg"" style=""width:8cm; height:5.359999999999999cm;""><p>What type of rock is this?</p>","1","class_response","1","test","14","Basalt","Basalt","11","true","2","2","","","","","","","","","","","","","","",""
"","","","","","","","","","","","html-keyboard-response","167","2.0.0","869357","62c44d672834a5c5ce7362f1","3","45","null","","","","","","","","","<p style='font-size: 30px;'><strong>Okay</strong></p>","null","neutral_feedback","1","test","14","","","","","","","","","","","","","","","","","","","","",""
"","","","","","","","","","","","html-button-response","168","2.0.0","874346","62c44d672834a5c5ce7362f1","3","45","4987","","","","","","","","","<img src= ""rock_img/I_Pumice_05.jpg"" style=""width:8cm; height:7.25cm;""><p>What type of rock is this?</p>","7","class_response","1","test","15","Pumice","Pumice","05","true","8","8","","","","","","","","","","","","","","",""
"","","","","","","","","","","","html-keyboard-response","169","2.0.0","874854","62c44d672834a5c5ce7362f1","3","45","null","","","","","","","","","<p style='font-size: 30px;'><strong>Okay</strong></p>","null","neutral_feedback","1","test","15","","","","","","","","","","","","","","","","","","","","",""
"","","","","","","","","","","","html-button-response","170","2.0.0","880095","62c44d672834a5c5ce7362f1","3","45","5239","","","","","","","","","<img src= ""rock_img/I_Andesite_01.jpg"" style=""width:8cm; height:5.87cm;""><p>What type of rock is this?</p>","1","class_response","1","test","16","Basalt","Andesite","01","false","2","1","","","","","","","","","","","","","","",""
"","","","","","","","","","","","html-keyboard-response","171","2.0.0","880602","62c44d672834a5c5ce7362f1","3","45","null","","","","","","","","","<p style='font-size: 30px;'><strong>Okay</strong></p>","null","neutral_feedback","1","test","16","","","","","","","","","","","","","","","","","","","","",""
"","","","","","","","","","","","html-button-response","172","2.0.0","881991","62c44d672834a5c5ce7362f1","3","45","1387","","","","","","","","","<img src= ""rock_img/I_Obsidian_12.jpg"" style=""width:8cm; height:6.53cm;""><p>What type of rock is this?</p>","4","class_response","1","test","17","Obsidian","Obsidian","12","true","5","5","","","","","","","","","","","","","","",""
"","","","","","","","","","","","html-keyboard-response","173","2.0.0","882495","62c44d672834a5c5ce7362f1","3","45","null","","","","","","","","","<p style='font-size: 30px;'><strong>Okay</strong></p>","null","neutral_feedback","1","test","17","","","","","","","","","","","","","","","","","","","","",""
"","","","","","","","","","","","html-button-response","174","2.0.0","884231","62c44d672834a5c5ce7362f1","3","45","1735","","","","","","","","","<img src= ""rock_img/I_Obsidian_14.jpg"" style=""width:8cm; height:7.64cm;""><p>What type of rock is this?</p>","4","class_response","1","test","18","Obsidian","Obsidian","14","true","5","5","","","","","","","","","","","","","","",""
"","","","","","","","","","","","html-keyboard-response","175","2.0.0","884733","62c44d672834a5c5ce7362f1","3","45","null","","","","","","","","","<p style='font-size: 30px;'><strong>Okay</strong></p>","null","neutral_feedback","1","test","18","","","","","","","","","","","","","","","","","","","","",""
"","","","","","","","","","","","html-button-response","176","2.0.0","886439","62c44d672834a5c5ce7362f1","3","45","1704","","","","","","","","","<img src= ""rock_img/I_Basalt_02.jpg"" style=""width:8cm; height:6.45cm;""><p>What type of rock is this?</p>","1","class_response","1","test","19","Basalt","Basalt","02","true","2","2","","","","","","","","","","","","","","",""
"","","","","","","","","","","","html-keyboard-response","177","2.0.0","886941","62c44d672834a5c5ce7362f1","3","45","null","","","","","","","","","<p style='font-size: 30px;'><strong>Okay</strong></p>","null","neutral_feedback","1","test","19","","","","","","","","","","","","","","","","","","","","",""
"","","","","","","","","","","","html-button-response","178","2.0.0","889457","62c44d672834a5c5ce7362f1","3","45","2515","","","","","","","","","<img src= ""rock_img/I_Pegmatite_13.jpg"" style=""width:8cm; height:4.95cm;""><p>What type of rock is this?</p>","5","class_response","1","test","20","Pegmatite","Pegmatite","13","true","6","6","","","","","","","","","","","","","","",""
"","","","","","","","","","","","html-keyboard-response","179","2.0.0","889970","62c44d672834a5c5ce7362f1","3","45","null","","","","","","","","","<p style='font-size: 30px;'><strong>Okay</strong></p>","null","neutral_feedback","1","test","20","","","","","","","","","","","","","","","","","","","","",""
"","","","","","","","","","","","html-button-response","180","2.0.0","891808","62c44d672834a5c5ce7362f1","3","45","1837","","","","","","","","","<img src= ""rock_img/I_Basalt_06.jpg"" style=""width:8cm; height:7.06cm;""><p>What type of rock is this?</p>","1","class_response","1","test","21","Basalt","Basalt","06","true","2","2","","","","","","","","","","","","","","",""
"","","","","","","","","","","","html-keyboard-response","181","2.0.0","892310","62c44d672834a5c5ce7362f1","3","45","null","","","","","","","","","<p style='font-size: 30px;'><strong>Okay</strong></p>","null","neutral_feedback","1","test","21","","","","","","","","","","","","","","","","","","","","",""
"","","","","","","","","","","","html-button-response","182","2.0.0","917469","62c44d672834a5c5ce7362f1","3","45","25157","","","","","","","","","<img src= ""rock_img/I_Diorite_10.jpg"" style=""width:8cm; height:5.949999999999999cm;""><p>What type of rock is this?</p>","2","class_response","1","test","22","Diorite","Diorite","10","true","3","3","","","","","","","","","","","","","","",""
"","","","","","","","","","","","html-keyboard-response","183","2.0.0","917973","62c44d672834a5c5ce7362f1","3","45","null","","","","","","","","","<p style='font-size: 30px;'><strong>Okay</strong></p>","null","neutral_feedback","1","test","22","","","","","","","","","","","","","","","","","","","","",""
"","","","","","","","","","","","html-button-response","184","2.0.0","919627","62c44d672834a5c5ce7362f1","3","45","1653","","","","","","","","","<img src= ""rock_img/I_Gabbro_11.jpg"" style=""width:8cm; height:6.2cm;""><p>What type of rock is this?</p>","1","class_response","1","test","23","Basalt","Gabbro","11","false","2","4","","","","","","","","","","","","","","",""
"","","","","","","","","","","","html-keyboard-response","185","2.0.0","920131","62c44d672834a5c5ce7362f1","3","45","null","","","","","","","","","<p style='font-size: 30px;'><strong>Okay</strong></p>","null","neutral_feedback","1","test","23","","","","","","","","","","","","","","","","","","","","",""
"","","","","","","","","","","","html-button-response","186","2.0.0","921781","62c44d672834a5c5ce7362f1","3","45","1649","","","","","","","","","<img src= ""rock_img/I_Basalt_04.jpg"" style=""width:8cm; height:7.53cm;""><p>What type of rock is this?</p>","1","class_response","1","test","24","Basalt","Basalt","04","true","2","2","","","","","","","","","","","","","","",""
"","","","","","","","","","","","html-keyboard-response","187","2.0.0","922283","62c44d672834a5c5ce7362f1","3","45","null","","","","","","","","","<p style='font-size: 30px;'><strong>Okay</strong></p>","null","neutral_feedback","1","test","24","","","","","","","","","","","","","","","","","","","","",""
"","","","","","","","","","","","html-button-response","188","2.0.0","928005","62c44d672834a5c5ce7362f1","3","45","5721","","","","","","","","","<img src= ""rock_img/I_Andesite_09.jpg"" style=""width:8cm; height:6cm;""><p>What type of rock is this?</p>","1","class_response","1","test","25","Basalt","Andesite","09","false","2","1","","","","","","","","","","","","","","",""
"","","","","","","","","","","","html-keyboard-response","189","2.0.0","928518","62c44d672834a5c5ce7362f1","3","45","null","","","","","","","","","<p style='font-size: 30px;'><strong>Okay</strong></p>","null","neutral_feedback","1","test","25","","","","","","","","","","","","","","","","","","","","",""
"","","","","","","","","","","","html-button-response","190","2.0.0","931451","62c44d672834a5c5ce7362f1","3","45","2931","","","","","","","","","<img src= ""rock_img/I_Peridotite_04.jpg"" style=""width:8cm; height:6.680000000000001cm;""><p>What type of rock is this?</p>","6","class_response","1","test","26","Peridotite","Peridotite","04","true","7","7","","","","","","","","","","","","","","",""
"","","","","","","","","","","","html-keyboard-response","191","2.0.0","931964","62c44d672834a5c5ce7362f1","3","45","null","","","","","","","","","<p style='font-size: 30px;'><strong>Okay</strong></p>","null","neutral_feedback","1","test","26","","","","","","","","","","","","","","","","","","","","",""
"","","","","","","","","","","","html-button-response","192","2.0.0","940125","62c44d672834a5c5ce7362f1","3","45","8159","","","","","","","","","<img src= ""rock_img/I_Diorite_09.jpg"" style=""width:8cm; height:5.27cm;""><p>What type of rock is this?</p>","2","class_response","1","test","27","Diorite","Diorite","09","true","3","3","","","","","","","","","","","","","","",""
"","","","","","","","","","","","html-keyboard-response","193","2.0.0","940630","62c44d672834a5c5ce7362f1","3","45","null","","","","","","","","","<p style='font-size: 30px;'><strong>Okay</strong></p>","null","neutral_feedback","1","test","27","","","","","","","","","","","","","","","","","","","","",""
"","","","","","","","","","","","html-button-response","194","2.0.0","942667","62c44d672834a5c5ce7362f1","3","45","2035","","","","","","","","","<img src= ""rock_img/I_Pegmatite_05.jpg"" style=""width:8cm; height:7.300000000000001cm;""><p>What type of rock is this?</p>","5","class_response","1","test","28","Pegmatite","Pegmatite","05","true","6","6","","","","","","","","","","","","","","",""
"","","","","","","","","","","","html-keyboard-response","195","2.0.0","943174","62c44d672834a5c5ce7362f1","3","45","null","","","","","","","","","<p style='font-size: 30px;'><strong>Okay</strong></p>","null","neutral_feedback","1","test","28","","","","","","","","","","","","","","","","","","","","",""
"","","","","","","","","","","","html-button-response","196","2.0.0","945643","62c44d672834a5c5ce7362f1","3","45","2467","","","","","","","","","<img src= ""rock_img/I_Peridotite_05.jpg"" style=""width:8cm; height:7.1499999999999995cm;""><p>What type of rock is this?</p>","1","class_response","1","test","29","Basalt","Peridotite","05","false","2","7","","","","","","","","","","","","","","",""
"","","","","","","","","","","","html-keyboard-response","197","2.0.0","946152","62c44d672834a5c5ce7362f1","3","45","null","","","","","","","","","<p style='font-size: 30px;'><strong>Okay</strong></p>","null","neutral_feedback","1","test","29","","","","","","","","","","","","","","","","","","","","",""
"","","","","","","","","","","","html-button-response","198","2.0.0","947873","62c44d672834a5c5ce7362f1","3","45","1720","","","","","","","","","<img src= ""rock_img/I_Andesite_03.jpg"" style=""width:8cm; height:5.73cm;""><p>What type of rock is this?</p>","1","class_response","1","test","30","Basalt","Andesite","03","false","2","1","","","","","","","","","","","","","","",""
"","","","","","","","","","","","html-keyboard-response","199","2.0.0","948377","62c44d672834a5c5ce7362f1","3","45","null","","","","","","","","","<p style='font-size: 30px;'><strong>Okay</strong></p>","null","neutral_feedback","1","test","30","","","","","","","","","","","","","","","","","","","","",""
"","","","","","","","","","","","html-button-response","200","2.0.0","956901","62c44d672834a5c5ce7362f1","3","45","8522","","","","","","","","","<img src= ""rock_img/I_Pumice_15.jpg"" style=""width:8cm; height:7.86cm;""><p>What type of rock is this?</p>","0","class_response","1","test","31","Andesite","Pumice","15","false","1","8","","","","","","","","","","","","","","",""
"","","","","","","","","","","","html-keyboard-response","201","2.0.0","957403","62c44d672834a5c5ce7362f1","3","45","null","","","","","","","","","<p style='font-size: 30px;'><strong>Okay</strong></p>","null","neutral_feedback","1","test","31","","","","","","","","","","","","","","","","","","","","",""
"","","","","","","","","","","","html-button-response","202","2.0.0","958581","62c44d672834a5c5ce7362f1","3","45","1176","","","","","","","","","<img src= ""rock_img/I_Obsidian_04.jpg"" style=""width:8cm; height:6.930000000000001cm;""><p>What type of rock is this?</p>","4","class_response","1","test","32","Obsidian","Obsidian","04","true","5","5","","","","","","","","","","","","","","",""
"","","","","","","","","","","","html-keyboard-response","203","2.0.0","959090","62c44d672834a5c5ce7362f1","3","45","null","","","","","","","","","<p style='font-size: 30px;'><strong>Okay</strong></p>","null","neutral_feedback","1","test","32","","","","","","","","","","","","","","","","","","","","",""
"","","","","","","","","","","","html-button-response","204","2.0.0","973196","62c44d672834a5c5ce7362f1","3","45","14105","","","","","","","","","<img src= ""rock_img/I_Diorite_07.jpg"" style=""width:8cm; height:5.239999999999999cm;""><p>What type of rock is this?</p>","2","class_response","1","test","33","Diorite","Diorite","07","true","3","3","","","","","","","","","","","","","","",""
"","","","","","","","","","","","html-keyboard-response","205","2.0.0","973707","62c44d672834a5c5ce7362f1","3","45","null","","","","","","","","","<p style='font-size: 30px;'><strong>Okay</strong></p>","null","neutral_feedback","1","test","33","","","","","","","","","","","","","","","","","","","","",""
"","","","","","","","","","","","html-button-response","206","2.0.0","977075","62c44d672834a5c5ce7362f1","3","45","3366","","","","","","","","","<img src= ""rock_img/I_Gabbro_05.jpg"" style=""width:8cm; height:6cm;""><p>What type of rock is this?</p>","1","class_response","1","test","34","Basalt","Gabbro","05","false","2","4","","","","","","","","","","","","","","",""
"","","","","","","","","","","","html-keyboard-response","207","2.0.0","977582","62c44d672834a5c5ce7362f1","3","45","null","","","","","","","","","<p style='font-size: 30px;'><strong>Okay</strong></p>","null","neutral_feedback","1","test","34","","","","","","","","","","","","","","","","","","","","",""
"","","","","","","","","","","","html-button-response","208","2.0.0","979553","62c44d672834a5c5ce7362f1","3","45","1969","","","","","","","","","<img src= ""rock_img/I_Gabbro_15.jpg"" style=""width:8cm; height:6.29cm;""><p>What type of rock is this?</p>","1","class_response","1","test","35","Basalt","Gabbro","15","false","2","4","","","","","","","","","","","","","","",""
"","","","","","","","","","","","html-keyboard-response","209","2.0.0","980054","62c44d672834a5c5ce7362f1","3","45","null","","","","","","","","","<p style='font-size: 30px;'><strong>Okay</strong></p>","null","neutral_feedback","1","test","35","","","","","","","","","","","","","","","","","","","","",""
"","","","","","","","","","","","html-button-response","210","2.0.0","981433","62c44d672834a5c5ce7362f1","3","45","1377","","","","","","","","","<img src= ""rock_img/I_Diorite_14.jpg"" style=""width:8cm; height:5.71cm;""><p>What type of rock is this?</p>","2","class_response","1","test","36","Diorite","Diorite","14","true","3","3","","","","","","","","","","","","","","",""
"","","","","","","","","","","","html-keyboard-response","211","2.0.0","981935","62c44d672834a5c5ce7362f1","3","45","null","","","","","","","","","<p style='font-size: 30px;'><strong>Okay</strong></p>","null","neutral_feedback","1","test","36","","","","","","","","","","","","","","","","","","","","",""
"","","","","","","","","","","","html-button-response","212","2.0.0","983665","62c44d672834a5c5ce7362f1","3","45","1729","","","","","","","","","<img src= ""rock_img/I_Basalt_14.jpg"" style=""width:8cm; height:5.82cm;""><p>What type of rock is this?</p>","1","class_response","1","test","37","Basalt","Basalt","14","true","2","2","","","","","","","","","","","","","","",""
"","","","","","","","","","","","html-keyboard-response","213","2.0.0","984168","62c44d672834a5c5ce7362f1","3","45","null","","","","","","","","","<p style='font-size: 30px;'><strong>Okay</strong></p>","null","neutral_feedback","1","test","37","","","","","","","","","","","","","","","","","","","","",""
"","","","","","","","","","","","html-button-response","214","2.0.0","986545","62c44d672834a5c5ce7362f1","3","45","2375","","","","","","","","","<img src= ""rock_img/I_Pegmatite_15.jpg"" style=""width:8cm; height:6cm;""><p>What type of rock is this?</p>","5","class_response","1","test","38","Pegmatite","Pegmatite","15","true","6","6","","","","","","","","","","","","","","",""
"","","","","","","","","","","","html-keyboard-response","215","2.0.0","987048","62c44d672834a5c5ce7362f1","3","45","null","","","","","","","","","<p style='font-size: 30px;'><strong>Okay</strong></p>","null","neutral_feedback","1","test","38","","","","","","","","","","","","","","","","","","","","",""
"","","","","","","","","","","","html-button-response","216","2.0.0","988844","62c44d672834a5c5ce7362f1","3","45","1794","","","","","","","","","<img src= ""rock_img/I_Diorite_02.jpg"" style=""width:8cm; height:6.27cm;""><p>What type of rock is this?</p>","2","class_response","1","test","39","Diorite","Diorite","02","true","3","3","","","","","","","","","","","","","","",""
"","","","","","","","","","","","html-keyboard-response","217","2.0.0","989346","62c44d672834a5c5ce7362f1","3","45","null","","","","","","","","","<p style='font-size: 30px;'><strong>Okay</strong></p>","null","neutral_feedback","1","test","39","","","","","","","","","","","","","","","","","","","","",""
"","","","","","","","","","","","html-button-response","218","2.0.0","995787","62c44d672834a5c5ce7362f1","3","45","6439","","","","","","","","","<img src= ""rock_img/I_Pumice_16.jpg"" style=""width:8cm; height:6.79cm;""><p>What type of rock is this?</p>","7","class_response","1","test","40","Pumice","Pumice","16","true","8","8","","","","","","","","","","","","","","",""
"","","","","","","","","","","","html-keyboard-response","219","2.0.0","996293","62c44d672834a5c5ce7362f1","3","45","null","","","","","","","","","<p style='font-size: 30px;'><strong>Okay</strong></p>","null","neutral_feedback","1","test","40","","","","","","","","","","","","","","","","","","","","",""
"","","","","","","","","","","","html-button-response","220","2.0.0","1005699","62c44d672834a5c5ce7362f1","3","45","9405","","","","","","","","","<img src= ""rock_img/I_Andesite_06.jpg"" style=""width:8cm; height:6.840000000000001cm;""><p>What type of rock is this?</p>","0","class_response","1","test","41","Andesite","Andesite","06","true","1","1","","","","","","","","","","","","","","",""
"","","","","","","","","","","","html-keyboard-response","221","2.0.0","1006202","62c44d672834a5c5ce7362f1","3","45","null","","","","","","","","","<p style='font-size: 30px;'><strong>Okay</strong></p>","null","neutral_feedback","1","test","41","","","","","","","","","","","","","","","","","","","","",""
"","","","","","","","","","","","html-button-response","222","2.0.0","1010542","62c44d672834a5c5ce7362f1","3","45","4338","","","","","","","","","<img src= ""rock_img/I_Peridotite_12.jpg"" style=""width:8cm; height:4.54cm;""><p>What type of rock is this?</p>","6","class_response","1","test","42","Peridotite","Peridotite","12","true","7","7","","","","","","","","","","","","","","",""
"","","","","","","","","","","","html-keyboard-response","223","2.0.0","1011045","62c44d672834a5c5ce7362f1","3","45","null","","","","","","","","","<p style='font-size: 30px;'><strong>Okay</strong></p>","null","neutral_feedback","1","test","42","","","","","","","","","","","","","","","","","","","","",""
"","","","","","","","","","","","html-button-response","224","2.0.0","1028428","62c44d672834a5c5ce7362f1","3","45","17380","","","","","","","","","<img src= ""rock_img/I_Gabbro_03.jpg"" style=""width:8cm; height:8.52cm;""><p>What type of rock is this?</p>","2","class_response","1","test","43","Diorite","Gabbro","03","false","3","4","","","","","","","","","","","","","","",""
"","","","","","","","","","","","html-keyboard-response","225","2.0.0","1028938","62c44d672834a5c5ce7362f1","3","45","null","","","","","","","","","<p style='font-size: 30px;'><strong>Okay</strong></p>","null","neutral_feedback","1","test","43","","","","","","","","","","","","","","","","","","","","",""
"","","","","","","","","","","","html-button-response","226","2.0.0","1031939","62c44d672834a5c5ce7362f1","3","45","2999","","","","","","","","","<img src= ""rock_img/I_Pegmatite_06.jpg"" style=""width:8cm; height:5.17cm;""><p>What type of rock is this?</p>","5","class_response","1","test","44","Pegmatite","Pegmatite","06","true","6","6","","","","","","","","","","","","","","",""
"","","","","","","","","","","","html-keyboard-response","227","2.0.0","1032440","62c44d672834a5c5ce7362f1","3","45","null","","","","","","","","","<p style='font-size: 30px;'><strong>Okay</strong></p>","null","neutral_feedback","1","test","44","","","","","","","","","","","","","","","","","","","","",""
"","","","","","","","","","","","html-button-response","228","2.0.0","1034952","62c44d672834a5c5ce7362f1","3","45","2511","","","","","","","","","<img src= ""rock_img/I_Andesite_11.jpg"" style=""width:8cm; height:4.92cm;""><p>What type of rock is this?</p>","1","class_response","1","test","45","Basalt","Andesite","11","false","2","1","","","","","","","","","","","","","","",""
"","","","","","","","","","","","html-keyboard-response","229","2.0.0","1035459","62c44d672834a5c5ce7362f1","3","45","null","","","","","","","","","<p style='font-size: 30px;'><strong>Okay</strong></p>","null","neutral_feedback","1","test","45","","","","","","","","","","","","","","","","","","","","",""
"","","","","","","","","","","","html-button-response","230","2.0.0","1036969","62c44d672834a5c5ce7362f1","3","45","1509","","","","","","","","","<img src= ""rock_img/I_Pegmatite_10.jpg"" style=""width:8cm; height:4.16cm;""><p>What type of rock is this?</p>","6","class_response","1","test","46","Peridotite","Pegmatite","10","false","7","6","","","","","","","","","","","","","","",""
"","","","","","","","","","","","html-keyboard-response","231","2.0.0","1037471","62c44d672834a5c5ce7362f1","3","45","null","","","","","","","","","<p style='font-size: 30px;'><strong>Okay</strong></p>","null","neutral_feedback","1","test","46","","","","","","","","","","","","","","","","","","","","",""
"","","","","","","","","","","","html-button-response","232","2.0.0","1038881","62c44d672834a5c5ce7362f1","3","45","1408","","","","","","","","","<img src= ""rock_img/I_Gabbro_16.jpg"" style=""width:8cm; height:6.44cm;""><p>What type of rock is this?</p>","1","class_response","1","test","47","Basalt","Gabbro","16","false","2","4","","","","","","","","","","","","","","",""
"","","","","","","","","","","","html-keyboard-response","233","2.0.0","1039384","62c44d672834a5c5ce7362f1","3","45","null","","","","","","","","","<p style='font-size: 30px;'><strong>Okay</strong></p>","null","neutral_feedback","1","test","47","","","","","","","","","","","","","","","","","","","","",""
"","","","","","","","","","","","html-button-response","234","2.0.0","1041927","62c44d672834a5c5ce7362f1","3","45","2542","","","","","","","","","<img src= ""rock_img/I_Peridotite_10.jpg"" style=""width:8cm; height:5.390000000000001cm;""><p>What type of rock is this?</p>","7","class_response","1","test","48","Pumice","Peridotite","10","false","8","7","","","","","","","","","","","","","","",""
"","","","","","","","","","","","html-keyboard-response","235","2.0.0","1042429","62c44d672834a5c5ce7362f1","3","45","null","","","","","","","","","<p style='font-size: 30px;'><strong>Okay</strong></p>","null","neutral_feedback","1","test","48","","","","","","","","","","","","","","","","","","","","",""
"","","","","","","","","","","","html-button-response","236","2.0.0","1083977","62c44d672834a5c5ce7362f1","3","45","","","","","","","","","","","","cycle_feedback","","","","","","","","","","","","","","","","","","","","","","22743.90000000596","18797.20000001788",""
"","","","","","","","","","","","html-button-response","238","2.0.0","1086923","62c44d672834a5c5ce7362f1","3","45","2943","","","","","","","","","","0","start_train","","","","","","","","","","","","","","","","","","","","","","","",""
"","","","","","","","","","","","html-button-response","240","2.0.0","1089469","62c44d672834a5c5ce7362f1","3","45","2544","","","","","","","","","<img src= ""rock_img/I_Obsidian_09.jpg"" style=""width:8cm; height:5cm;""><p>What type of rock is this?</p>","4","class_response","2","train","1","Obsidian","Obsidian","09","true","5","5","","","","","","","","","","","","","","",""
"","","","","","","","","","","","html-button-response","241","2.0.0","1091360","62c44d672834a5c5ce7362f1","3","45","1890","","","","","","","","","<img src= rock_img/I_Obsidian_09.jpg style=""width:8cm; height:5cm;""><p style='font-size: 30px; color: green;'><strong>Correct!</strong></p><p style='font-size: 30px;'><strong>This rock is obsidian</strong></p>","0","corr_feedback","2","train","1","","","","","","","","","","","","","","","","","","","","",""
"","","","","","","","","","","","html-button-response","242","2.0.0","1095326","62c44d672834a5c5ce7362f1","3","45","3963","","","","","","","","","<img src= ""rock_img/I_Andesite_04.jpg"" style=""width:8cm; height:5.96cm;""><p>What type of rock is this?</p>","0","class_response","2","train","2","Andesite","Andesite","04","true","1","1","","","","","","","","","","","","","","",""
"","","","","","","","","","","","html-button-response","243","2.0.0","1098467","62c44d672834a5c5ce7362f1","3","45","3138","","","","","","","","","<img src= rock_img/I_Andesite_04.jpg style=""width:8cm; height:5.96cm;""><p style='font-size: 30px; color: green;'><strong>Correct!</strong></p><p style='font-size: 30px;'><strong>This rock is andesite</strong></p>","0","corr_feedback","2","train","2","","","","","","","","","","","","","","","","","","","","",""
"","","","","","","","","","","","html-button-response","244","2.0.0","1101933","62c44d672834a5c5ce7362f1","3","45","3465","","","","","","","","","<img src= ""rock_img/I_Pumice_13.jpg"" style=""width:8cm; height:8.200000000000001cm;""><p>What type of rock is this?</p>","3","class_response","2","train","3","Gabbro","Pumice","13","false","4","8","","","","","","","","","","","","","","",""
"","","","","","","","","","","","html-button-response","245","2.0.0","1105953","62c44d672834a5c5ce7362f1","3","45","4018","","","","","","","","","<img src= rock_img/I_Pumice_13.jpg style=""width:8cm; height:8.200000000000001cm;""><p style='font-size: 30px; color: red;'><strong>Incorrect!</strong></p><p style='font-size: 30px;'><strong>This rock is pumice</strong></p>","0","corr_feedback","2","train","3","","","","","","","","","","","","","","","","","","","","",""
"","","","","","","","","","","","html-button-response","246","2.0.0","1108333","62c44d672834a5c5ce7362f1","3","45","2378","","","","","","","","","<img src= ""rock_img/I_Peridotite_14.jpg"" style=""width:8cm; height:5.3cm;""><p>What type of rock is this?</p>","0","class_response","2","train","4","Andesite","Peridotite","14","false","1","7","","","","","","","","","","","","","","",""
"","","","","","","","","","","","html-button-response","247","2.0.0","1111253","62c44d672834a5c5ce7362f1","3","45","2918","","","","","","","","","<img src= rock_img/I_Peridotite_14.jpg style=""width:8cm; height:5.3cm;""><p style='font-size: 30px; color: red;'><strong>Incorrect!</strong></p><p style='font-size: 30px;'><strong>This rock is peridotite</strong></p>","0","corr_feedback","2","train","4","","","","","","","","","","","","","","","","","","","","",""
"","","","","","","","","","","","html-button-response","248","2.0.0","1113125","62c44d672834a5c5ce7362f1","3","45","1870","","","","","","","","","<img src= ""rock_img/I_Diorite_13.jpg"" style=""width:8cm; height:6.29cm;""><p>What type of rock is this?</p>","0","class_response","2","train","5","Andesite","Diorite","13","false","1","3","","","","","","","","","","","","","","",""
"","","","","","","","","","","","html-button-response","249","2.0.0","1115031","62c44d672834a5c5ce7362f1","3","45","1904","","","","","","","","","<img src= rock_img/I_Diorite_13.jpg style=""width:8cm; height:6.29cm;""><p style='font-size: 30px; color: red;'><strong>Incorrect!</strong></p><p style='font-size: 30px;'><strong>This rock is diorite</strong></p>","0","corr_feedback","2","train","5","","","","","","","","","","","","","","","","","","","","",""
"","","","","","","","","","","","html-button-response","250","2.0.0","1118336","62c44d672834a5c5ce7362f1","3","45","3302","","","","","","","","","<img src= ""rock_img/I_Andesite_07.jpg"" style=""width:8cm; height:5.93cm;""><p>What type of rock is this?</p>","2","class_response","2","train","6","Diorite","Andesite","07","false","3","1","","","","","","","","","","","","","","",""
"","","","","","","","","","","","html-button-response","251","2.0.0","1140483","62c44d672834a5c5ce7362f1","3","45","22145","","","","","","","","","<img src= rock_img/I_Andesite_07.jpg style=""width:8cm; height:5.93cm;""><p style='font-size: 30px; color: red;'><strong>Incorrect!</strong></p><p style='font-size: 30px;'><strong>This rock is andesite</strong></p>","0","corr_feedback","2","train","6","","","","","","","","","","","","","","","","","","","","",""
"","","","","","","","","","","","html-button-response","252","2.0.0","1142479","62c44d672834a5c5ce7362f1","3","45","1994","","","","","","","","","<img src= ""rock_img/I_Obsidian_06.jpg"" style=""width:8cm; height:6.8cm;""><p>What type of rock is this?</p>","4","class_response","2","train","7","Obsidian","Obsidian","06","true","5","5","","","","","","","","","","","","","","",""
"","","","","","","","","","","","html-button-response","253","2.0.0","1143659","62c44d672834a5c5ce7362f1","3","45","1178","","","","","","","","","<img src= rock_img/I_Obsidian_06.jpg style=""width:8cm; height:6.8cm;""><p style='font-size: 30px; color: green;'><strong>Correct!</strong></p><p style='font-size: 30px;'><strong>This rock is obsidian</strong></p>","0","corr_feedback","2","train","7","","","","","","","","","","","","","","","","","","","","",""
"","","","","","","","","","","","html-button-response","254","2.0.0","1145127","62c44d672834a5c5ce7362f1","3","45","1466","","","","","","","","","<img src= ""rock_img/I_Basalt_05.jpg"" style=""width:8cm; height:8.18cm;""><p>What type of rock is this?</p>","1","class_response","2","train","8","Basalt","Basalt","05","true","2","2","","","","","","","","","","","","","","",""
"","","","","","","","","","","","html-button-response","255","2.0.0","1146263","62c44d672834a5c5ce7362f1","3","45","1134","","","","","","","","","<img src= rock_img/I_Basalt_05.jpg style=""width:8cm; height:8.18cm;""><p style='font-size: 30px; color: green;'><strong>Correct!</strong></p><p style='font-size: 30px;'><strong>This rock is basalt</strong></p>","0","corr_feedback","2","train","8","","","","","","","","","","","","","","","","","","","","",""
"","","","","","","","","","","","html-button-response","256","2.0.0","1147877","62c44d672834a5c5ce7362f1","3","45","1613","","","","","","","","","<img src= ""rock_img/I_Pegmatite_11.jpg"" style=""width:8cm; height:8.14cm;""><p>What type of rock is this?</p>","5","class_response","2","train","9","Pegmatite","Pegmatite","11","true","6","6","","","","","","","","","","","","","","",""
"","","","","","","","","","","","html-button-response","257","2.0.0","1148759","62c44d672834a5c5ce7362f1","3","45","880","","","","","","","","","<img src= rock_img/I_Pegmatite_11.jpg style=""width:8cm; height:8.14cm;""><p style='font-size: 30px; color: green;'><strong>Correct!</strong></p><p style='font-size: 30px;'><strong>This rock is pegmatite</strong></p>","0","corr_feedback","2","train","9","","","","","","","","","","","","","","","","","","","","",""
"","","","","","","","","","","","html-button-response","258","2.0.0","1150980","62c44d672834a5c5ce7362f1","3","45","2218","","","","","","","","","<img src= ""rock_img/I_Diorite_16.jpg"" style=""width:8cm; height:6.74cm;""><p>What type of rock is this?</p>","0","class_response","2","train","10","Andesite","Diorite","16","false","1","3","","","","","","","","","","","","","","",""
"","","","","","","","","","","","html-button-response","259","2.0.0","1169730","62c44d672834a5c5ce7362f1","3","45","18748","","","","","","","","","<img src= rock_img/I_Diorite_16.jpg style=""width:8cm; height:6.74cm;""><p style='font-size: 30px; color: red;'><strong>Incorrect!</strong></p><p style='font-size: 30px;'><strong>This rock is diorite</strong></p>","0","corr_feedback","2","train","10","","","","","","","","","","","","","","","","","","","","",""
"","","","","","","","","","","","html-button-response","260","2.0.0","1172021","62c44d672834a5c5ce7362f1","3","45","2289","","","","","","","","","<img src= ""rock_img/I_Gabbro_09.jpg"" style=""width:8cm; height:7.279999999999999cm;""><p>What type of rock is this?</p>","1","class_response","2","train","11","Basalt","Gabbro","09","false","2","4","","","","","","","","","","","","","","",""
"","","","","","","","","","","","html-button-response","261","2.0.0","1180555","62c44d672834a5c5ce7362f1","3","45","8532","","","","","","","","","<img src= rock_img/I_Gabbro_09.jpg style=""width:8cm; height:7.279999999999999cm;""><p style='font-size: 30px; color: red;'><strong>Incorrect!</strong></p><p style='font-size: 30px;'><strong>This rock is gabbro</strong></p>","0","corr_feedback","2","train","11","","","","","","","","","","","","","","","","","","","","",""
"","","","","","","","","","","","html-button-response","262","2.0.0","1183767","62c44d672834a5c5ce7362f1","3","45","3210","","","","","","","","","<img src= ""rock_img/I_Pumice_06.jpg"" style=""width:8cm; height:6.9399999999999995cm;""><p>What type of rock is this?</p>","7","class_response","2","train","12","Pumice","Pumice","06","true","8","8","","","","","","","","","","","","","","",""
"","","","","","","","","","","","html-button-response","263","2.0.0","1185673","62c44d672834a5c5ce7362f1","3","45","1904","","","","","","","","","<img src= rock_img/I_Pumice_06.jpg style=""width:8cm; height:6.9399999999999995cm;""><p style='font-size: 30px; color: green;'><strong>Correct!</strong></p><p style='font-size: 30px;'><strong>This rock is pumice</strong></p>","0","corr_feedback","2","train","12","","","","","","","","","","","","","","","","","","","","",""
"","","","","","","","","","","","html-button-response","265","2.0.0","1187973","62c44d672834a5c5ce7362f1","3","45","2298","","","","","","","","","","0","start_train","","","","","","","","","","","","","","","","","","","","","","","",""
"","","","","","","","","","","","html-button-response","266","2.0.0","1192795","62c44d672834a5c5ce7362f1","3","45","","","","","","","","","","","","cat_selection","2","train","1","","","","","","","1","2","4820","Andesite","Basalt","[0.21392964185976052,0.052546613547803225,0.10064042440145586,0.20929943540920923,0.026184604895701243,0.12700243305355782,0.17901683533215887,0.09138001150035324]","[null,0.7384016374131568,0.07299494650641719,0.026887709128036383,0.02939034919931524,0.07329873518558977,0.028541669714642635,0.030484952852841828]","","","","","","","",""
"","","","","","","","","","","","paired-cat-display","267","1.0.0","1261899","62c44d672834a5c5ce7362f1","3","45","","","","","","","","","","","","paired_cat_display","2","train","1","","","","","","","","","6463","","","","","","","62636.80000001192","May have occlusions; may look like conglomerate.","More uniform color throughout.","","",""
"","","","","","","","","","","","html-button-response","268","2.0.0","1265167","62c44d672834a5c5ce7362f1","3","45","","","","","","","","","","","","cat_selection","2","train","2","","","","","","","2","4","3266","Basalt","Gabbro","[0.21392964185976052,0.052546613547803225,0.10064042440145586,0.20929943540920923,0.026184604895701243,0.12700243305355782,0.17901683533215887,0.09138001150035324]","[0.057101617649150824,null,0.04547826614545701,0.05546724245954847,0.37071686194297604,0.04470675984477516,0.05785282115244632,0.3686764308056463]","","","","","","","",""
"","","","","","","","","","","","paired-cat-display","269","1.0.0","1323881","62c44d672834a5c5ce7362f1","3","45","","","","","","","","","","","","paired_cat_display","2","train","2","","","","","","","","","8180.9000000059605","","","","","","","50528.80000001192","","Again, uniform color throughout","","","more ""lumpy"" than basalt. Consistent color; but multiple shades."
"","","","","","","","","","","","html-button-response","270","2.0.0","1326221","62c44d672834a5c5ce7362f1","3","45","","","","","","","","","","","","cat_selection","2","train","3","","","","","","","6","7","2337.9000000059605","Pegmatite","Peridotite","[0.21392964185976052,0.052546613547803225,0.10064042440145586,0.20929943540920923,0.026184604895701243,0.12700243305355782,0.17901683533215887,0.09138001150035324]","[0.17872880673234903,0.024149318022503093,0.134531917313039,0.030663711712497117,0.028108402403122356,null,0.5830902275301448,0.02072761628634462]","","","","","","","",""
"","","","","","","","","","","","paired-cat-display","271","1.0.0","1380801","62c44d672834a5c5ce7362f1","3","45","","","","","","","","","","","","paired_cat_display","2","train","3","","","","","","","","","6741.199999988079","","","","","Pegmattie has occlussions.","Peridotite often has a green cast. Few to no occlustions.","47835.30000001192","","","","",""
"","","","","","","","","","","","html-button-response","273","2.0.0","1383025","62c44d672834a5c5ce7362f1","3","45","2223","","","","","","","","","","0","start_test","","","","","","","","","","","","","","","","","","","","","","","",""
"","","","","","","","","","","","html-button-response","274","2.0.0","1384653","62c44d672834a5c5ce7362f1","3","45","1626","","","","","","","","","<img src= ""rock_img/I_Obsidian_12.jpg"" style=""width:8cm; height:6.53cm;""><p>What type of rock is this?</p>","4","class_response","2","test","1","Obsidian","Obsidian","12","true","5","5","","","","","","","","","","","","","","",""
"","","","","","","","","","","","html-keyboard-response","275","2.0.0","1385157","62c44d672834a5c5ce7362f1","3","45","null","","","","","","","","","<p style='font-size: 30px;'><strong>Okay</strong></p>","null","neutral_feedback","2","test","1","","","","","","","","","","","","","","","","","","","","",""
"","","","","","","","","","","","html-button-response","276","2.0.0","1414649","62c44d672834a5c5ce7362f1","3","45","29491","","","","","","","","","<img src= ""rock_img/I_Basalt_06.jpg"" style=""width:8cm; height:7.06cm;""><p>What type of rock is this?</p>","1","class_response","2","test","2","Basalt","Basalt","06","true","2","2","","","","","","","","","","","","","","",""
"","","","","","","","","","","","html-keyboard-response","277","2.0.0","1415156","62c44d672834a5c5ce7362f1","3","45","null","","","","","","","","","<p style='font-size: 30px;'><strong>Okay</strong></p>","null","neutral_feedback","2","test","2","","","","","","","","","","","","","","","","","","","","",""
"","","","","","","","","","","","html-button-response","278","2.0.0","1416753","62c44d672834a5c5ce7362f1","3","45","1595","","","","","","","","","<img src= ""rock_img/I_Pumice_02.jpg"" style=""width:8cm; height:7.3999999999999995cm;""><p>What type of rock is this?</p>","7","class_response","2","test","3","Pumice","Pumice","02","true","8","8","","","","","","","","","","","","","","",""
"","","","","","","","","","","","html-keyboard-response","279","2.0.0","1417255","62c44d672834a5c5ce7362f1","3","45","null","","","","","","","","","<p style='font-size: 30px;'><strong>Okay</strong></p>","null","neutral_feedback","2","test","3","","","","","","","","","","","","","","","","","","","","",""
