"width","height","webaudio","browser","browser_version","mobile","os","fullscreen","vsync_rate","webcam","microphone","trial_type","trial_index","plugin_version","time_elapsed","subjID","condition","stimID","rt","url","success","value","timeout","failed_images","failed_audio","failed_video","view_history","stimulus","response","trialType","cycle","phase","trial","resp","cat","token","corr","resp_num","cat_num","ref_cat_num","paired_cat_num","time_obs","ref_cat","paired_cat","ref_prob_dist","paired_prob_dist","text_Basalt","text_Pumice","time_resp","text_Gabbro","text_Pegmatite","time_fb1","time_fb2","text_Diorite","text_Peridotite"
"1366","599","true","chrome","130.0.0","false","Chrome OS","true","56.84","true","true","browser-check","0","2.0.0","1084","6699b7e8a3fa22647d9ea5c3","3","12","","","","","","","","","","","","","","","","","","","","","","","","","","","","","","","","","","","","",""
"","","","","","","","","","","","external-html","1","2.0.0","12506","6699b7e8a3fa22647d9ea5c3","3","12","11351","consent_form.html","","","","","","","","","","","","","","","","","","","","","","","","","","","","","","","","","","",""
"","","","","","","","","","","","fullscreen","2","2.0.0","498561","6699b7e8a3fa22647d9ea5c3","3","12","485045","","true","","","","","","","","","","","","","","","","","","","","","","","","","","","","","","","","","",""
"","","","","","","","","","","","call-function","3","2.0.0","498572","6699b7e8a3fa22647d9ea5c3","3","12","","","","{}","","","","","","","","","","","","","","","","","","","","","","","","","","","","","","","","",""
"","","","","","","","","","","","preload","4","2.0.0","500512","6699b7e8a3fa22647d9ea5c3","3","12","","","true","","false","[]","[]","[]","","","","","","","","","","","","","","","","","","","","","","","","","","","","",""
"","","","","","","","","","","","instructions","5","2.0.0","565926","6699b7e8a3fa22647d9ea5c3","3","12","65412","","","","","","","","[{""page_index"":0,""viewing_time"":18678},{""page_index"":1,""viewing_time"":38060},{""page_index"":2,""viewing_time"":8673}]","","","","","","","","","","","","","","","","","","","","","","","","","","","",""
"","","","","","","","","","","","html-button-response","6","2.0.0","567129","6699b7e8a3fa22647d9ea5c3","3","12","1199","","","","","","","","","","0","start_test","","","","","","","","","","","","","","","","","","","","","","","","",""
"","","","","","","","","","","","html-button-response","7","2.0.0","570425","6699b7e8a3fa22647d9ea5c3","3","12","3290","","","","","","","","","<img src= ""rock_img/I_Pumice_09.jpg"" style=""width:8cm; height:6.44cm;""><p>What type of rock is this?</p>","6","class_response","0","test","1","Peridotite","Pumice","09","false","7","8","","","","","","","","","","","","","","","",""
"","","","","","","","","","","","html-keyboard-response","8","2.0.0","570929","6699b7e8a3fa22647d9ea5c3","3","12","null","","","","","","","","","<p style='font-size: 30px;'><strong>Okay</strong></p>","null","neutral_feedback","0","test","1","","","","","","","","","","","","","","","","","","","","","",""
"","","","","","","","","","","","html-button-response","9","2.0.0","574971","6699b7e8a3fa22647d9ea5c3","3","12","4038","","","","","","","","","<img src= ""rock_img/I_Obsidian_04.jpg"" style=""width:8cm; height:6.930000000000001cm;""><p>What type of rock is this?</p>","4","class_response","0","test","2","Obsidian","Obsidian","04","true","5","5","","","","","","","","","","","","","","","",""
"","","","","","","","","","","","html-keyboard-response","10","2.0.0","575475","6699b7e8a3fa22647d9ea5c3","3","12","null","","","","","","","","","<p style='font-size: 30px;'><strong>Okay</strong></p>","null","neutral_feedback","0","test","2","","","","","","","","","","","","","","","","","","","","","",""
"","","","","","","","","","","","html-button-response","11","2.0.0","577630","6699b7e8a3fa22647d9ea5c3","3","12","2152","","","","","","","","","<img src= ""rock_img/I_Basalt_14.jpg"" style=""width:8cm; height:5.82cm;""><p>What type of rock is this?</p>","3","class_response","0","test","3","Gabbro","Basalt","14","false","4","2","","","","","","","","","","","","","","","",""
"","","","","","","","","","","","html-keyboard-response","12","2.0.0","578133","6699b7e8a3fa22647d9ea5c3","3","12","null","","","","","","","","","<p style='font-size: 30px;'><strong>Okay</strong></p>","null","neutral_feedback","0","test","3","","","","","","","","","","","","","","","","","","","","","",""
"","","","","","","","","","","","html-button-response","13","2.0.0","579116","6699b7e8a3fa22647d9ea5c3","3","12","979","","","","","","","","","<img src= ""rock_img/I_Pumice_03.jpg"" style=""width:8cm; height:6.64cm;""><p>What type of rock is this?</p>","1","class_response","0","test","4","Basalt","Pumice","03","false","2","8","","","","","","","","","","","","","","","",""
"","","","","","","","","","","","html-keyboard-response","14","2.0.0","579619","6699b7e8a3fa22647d9ea5c3","3","12","null","","","","","","","","","<p style='font-size: 30px;'><strong>Okay</strong></p>","null","neutral_feedback","0","test","4","","","","","","","","","","","","","","","","","","","","","",""
"","","","","","","","","","","","html-button-response","15","2.0.0","580410","6699b7e8a3fa22647d9ea5c3","3","12","788","","","","","","","","","<img src= ""rock_img/I_Diorite_11.jpg"" style=""width:8cm; height:7.11cm;""><p>What type of rock is this?</p>","2","class_response","0","test","5","Diorite","Diorite","11","true","3","3","","","","","","","","","","","","","","","",""
"","","","","","","","","","","","html-keyboard-response","16","2.0.0","580917","6699b7e8a3fa22647d9ea5c3","3","12","null","","","","","","","","","<p style='font-size: 30px;'><strong>Okay</strong></p>","null","neutral_feedback","0","test","5","","","","","","","","","","","","","","","","","","","","","",""
"","","","","","","","","","","","html-button-response","17","2.0.0","581912","6699b7e8a3fa22647d9ea5c3","3","12","993","","","","","","","","","<img src= ""rock_img/I_Peridotite_02.jpg"" style=""width:8cm; height:5.859999999999999cm;""><p>What type of rock is this?</p>","0","class_response","0","test","6","Andesite","Peridotite","02","false","1","7","","","","","","","","","","","","","","","",""
"","","","","","","","","","","","html-keyboard-response","18","2.0.0","582414","6699b7e8a3fa22647d9ea5c3","3","12","null","","","","","","","","","<p style='font-size: 30px;'><strong>Okay</strong></p>","null","neutral_feedback","0","test","6","","","","","","","","","","","","","","","","","","","","","",""
"","","","","","","","","","","","html-button-response","19","2.0.0","583126","6699b7e8a3fa22647d9ea5c3","3","12","709","","","","","","","","","<img src= ""rock_img/I_Peridotite_12.jpg"" style=""width:8cm; height:4.54cm;""><p>What type of rock is this?</p>","6","class_response","0","test","7","Peridotite","Peridotite","12","true","7","7","","","","","","","","","","","","","","","",""
"","","","","","","","","","","","html-keyboard-response","20","2.0.0","583628","6699b7e8a3fa22647d9ea5c3","3","12","null","","","","","","","","","<p style='font-size: 30px;'><strong>Okay</strong></p>","null","neutral_feedback","0","test","7","","","","","","","","","","","","","","","","","","","","","",""
"","","","","","","","","","","","html-button-response","21","2.0.0","584387","6699b7e8a3fa22647d9ea5c3","3","12","757","","","","","","","","","<img src= ""rock_img/I_Basalt_09.jpg"" style=""width:8cm; height:6.2cm;""><p>What type of rock is this?</p>","7","class_response","0","test","8","Pumice","Basalt","09","false","8","2","","","","","","","","","","","","","","","",""
"","","","","","","","","","","","html-keyboard-response","22","2.0.0","584891","6699b7e8a3fa22647d9ea5c3","3","12","null","","","","","","","","","<p style='font-size: 30px;'><strong>Okay</strong></p>","null","neutral_feedback","0","test","8","","","","","","","","","","","","","","","","","","","","","",""
"","","","","","","","","","","","html-button-response","23","2.0.0","585688","6699b7e8a3fa22647d9ea5c3","3","12","794","","","","","","","","","<img src= ""rock_img/I_Pumice_14.jpg"" style=""width:8cm; height:6.39cm;""><p>What type of rock is this?</p>","1","class_response","0","test","9","Basalt","Pumice","14","false","2","8","","","","","","","","","","","","","","","",""
"","","","","","","","","","","","html-keyboard-response","24","2.0.0","586191","6699b7e8a3fa22647d9ea5c3","3","12","null","","","","","","","","","<p style='font-size: 30px;'><strong>Okay</strong></p>","null","neutral_feedback","0","test","9","","","","","","","","","","","","","","","","","","","","","",""
"","","","","","","","","","","","html-button-response","25","2.0.0","586961","6699b7e8a3fa22647d9ea5c3","3","12","767","","","","","","","","","<img src= ""rock_img/I_Andesite_05.jpg"" style=""width:8cm; height:4.12cm;""><p>What type of rock is this?</p>","0","class_response","0","test","10","Andesite","Andesite","05","true","1","1","","","","","","","","","","","","","","","",""
"","","","","","","","","","","","html-keyboard-response","26","2.0.0","587463","6699b7e8a3fa22647d9ea5c3","3","12","null","","","","","","","","","<p style='font-size: 30px;'><strong>Okay</strong></p>","null","neutral_feedback","0","test","10","","","","","","","","","","","","","","","","","","","","","",""
"","","","","","","","","","","","html-button-response","27","2.0.0","588074","6699b7e8a3fa22647d9ea5c3","3","12","607","","","","","","","","","<img src= ""rock_img/I_Diorite_15.jpg"" style=""width:8cm; height:5.54cm;""><p>What type of rock is this?</p>","2","class_response","0","test","11","Diorite","Diorite","15","true","3","3","","","","","","","","","","","","","","","",""
"","","","","","","","","","","","html-keyboard-response","28","2.0.0","588576","6699b7e8a3fa22647d9ea5c3","3","12","null","","","","","","","","","<p style='font-size: 30px;'><strong>Okay</strong></p>","null","neutral_feedback","0","test","11","","","","","","","","","","","","","","","","","","","","","",""
"","","","","","","","","","","","html-button-response","29","2.0.0","589208","6699b7e8a3fa22647d9ea5c3","3","12","630","","","","","","","","","<img src= ""rock_img/I_Basalt_01.jpg"" style=""width:8cm; height:7.880000000000001cm;""><p>What type of rock is this?</p>","3","class_response","0","test","12","Gabbro","Basalt","01","false","4","2","","","","","","","","","","","","","","","",""
"","","","","","","","","","","","html-keyboard-response","30","2.0.0","589711","6699b7e8a3fa22647d9ea5c3","3","12","null","","","","","","","","","<p style='font-size: 30px;'><strong>Okay</strong></p>","null","neutral_feedback","0","test","12","","","","","","","","","","","","","","","","","","","","","",""
"","","","","","","","","","","","html-button-response","31","2.0.0","590862","6699b7e8a3fa22647d9ea5c3","3","12","1148","","","","","","","","","<img src= ""rock_img/I_Peridotite_14.jpg"" style=""width:8cm; height:5.3cm;""><p>What type of rock is this?</p>","6","class_response","0","test","13","Peridotite","Peridotite","14","true","7","7","","","","","","","","","","","","","","","",""
"","","","","","","","","","","","html-keyboard-response","32","2.0.0","591364","6699b7e8a3fa22647d9ea5c3","3","12","null","","","","","","","","","<p style='font-size: 30px;'><strong>Okay</strong></p>","null","neutral_feedback","0","test","13","","","","","","","","","","","","","","","","","","","","","",""
"","","","","","","","","","","","html-button-response","33","2.0.0","591847","6699b7e8a3fa22647d9ea5c3","3","12","480","","","","","","","","","<img src= ""rock_img/I_Diorite_10.jpg"" style=""width:8cm; height:5.949999999999999cm;""><p>What type of rock is this?</p>","1","class_response","0","test","14","Basalt","Diorite","10","false","2","3","","","","","","","","","","","","","","","",""
"","","","","","","","","","","","html-keyboard-response","34","2.0.0","592349","6699b7e8a3fa22647d9ea5c3","3","12","null","","","","","","","","","<p style='font-size: 30px;'><strong>Okay</strong></p>","null","neutral_feedback","0","test","14","","","","","","","","","","","","","","","","","","","","","",""
"","","","","","","","","","","","html-button-response","35","2.0.0","593549","6699b7e8a3fa22647d9ea5c3","3","12","1197","","","","","","","","","<img src= ""rock_img/I_Diorite_08.jpg"" style=""width:8cm; height:6.37cm;""><p>What type of rock is this?</p>","6","class_response","0","test","15","Peridotite","Diorite","08","false","7","3","","","","","","","","","","","","","","","",""
"","","","","","","","","","","","html-keyboard-response","36","2.0.0","594051","6699b7e8a3fa22647d9ea5c3","3","12","null","","","","","","","","","<p style='font-size: 30px;'><strong>Okay</strong></p>","null","neutral_feedback","0","test","15","","","","","","","","","","","","","","","","","","","","","",""
"","","","","","","","","","","","html-button-response","37","2.0.0","594565","6699b7e8a3fa22647d9ea5c3","3","12","512","","","","","","","","","<img src= ""rock_img/I_Andesite_07.jpg"" style=""width:8cm; height:5.93cm;""><p>What type of rock is this?</p>","5","class_response","0","test","16","Pegmatite","Andesite","07","false","6","1","","","","","","","","","","","","","","","",""
"","","","","","","","","","","","html-keyboard-response","38","2.0.0","595067","6699b7e8a3fa22647d9ea5c3","3","12","null","","","","","","","","","<p style='font-size: 30px;'><strong>Okay</strong></p>","null","neutral_feedback","0","test","16","","","","","","","","","","","","","","","","","","","","","",""
"","","","","","","","","","","","html-button-response","39","2.0.0","595582","6699b7e8a3fa22647d9ea5c3","3","12","513","","","","","","","","","<img src= ""rock_img/I_Gabbro_05.jpg"" style=""width:8cm; height:6cm;""><p>What type of rock is this?</p>","6","class_response","0","test","17","Peridotite","Gabbro","05","false","7","4","","","","","","","","","","","","","","","",""
"","","","","","","","","","","","html-keyboard-response","40","2.0.0","596085","6699b7e8a3fa22647d9ea5c3","3","12","null","","","","","","","","","<p style='font-size: 30px;'><strong>Okay</strong></p>","null","neutral_feedback","0","test","17","","","","","","","","","","","","","","","","","","","","","",""
"","","","","","","","","","","","html-button-response","41","2.0.0","597284","6699b7e8a3fa22647d9ea5c3","3","12","1196","","","","","","","","","<img src= ""rock_img/I_Andesite_16.jpg"" style=""width:8cm; height:6.010000000000001cm;""><p>What type of rock is this?</p>","0","class_response","0","test","18","Andesite","Andesite","16","true","1","1","","","","","","","","","","","","","","","",""
"","","","","","","","","","","","html-keyboard-response","42","2.0.0","597786","6699b7e8a3fa22647d9ea5c3","3","12","null","","","","","","","","","<p style='font-size: 30px;'><strong>Okay</strong></p>","null","neutral_feedback","0","test","18","","","","","","","","","","","","","","","","","","","","","",""
"","","","","","","","","","","","html-button-response","43","2.0.0","598869","6699b7e8a3fa22647d9ea5c3","3","12","1080","","","","","","","","","<img src= ""rock_img/I_Obsidian_07.jpg"" style=""width:8cm; height:4.76cm;""><p>What type of rock is this?</p>","5","class_response","0","test","19","Pegmatite","Obsidian","07","false","6","5","","","","","","","","","","","","","","","",""
"","","","","","","","","","","","html-keyboard-response","44","2.0.0","599371","6699b7e8a3fa22647d9ea5c3","3","12","null","","","","","","","","","<p style='font-size: 30px;'><strong>Okay</strong></p>","null","neutral_feedback","0","test","19","","","","","","","","","","","","","","","","","","","","","",""
"","","","","","","","","","","","html-button-response","45","2.0.0","601304","6699b7e8a3fa22647d9ea5c3","3","12","1930","","","","","","","","","<img src= ""rock_img/I_Pegmatite_16.jpg"" style=""width:8cm; height:5.8cm;""><p>What type of rock is this?</p>","2","class_response","0","test","20","Diorite","Pegmatite","16","false","3","6","","","","","","","","","","","","","","","",""
"","","","","","","","","","","","html-keyboard-response","46","2.0.0","601806","6699b7e8a3fa22647d9ea5c3","3","12","null","","","","","","","","","<p style='font-size: 30px;'><strong>Okay</strong></p>","null","neutral_feedback","0","test","20","","","","","","","","","","","","","","","","","","","","","",""
"","","","","","","","","","","","html-button-response","47","2.0.0","602360","6699b7e8a3fa22647d9ea5c3","3","12","552","","","","","","","","","<img src= ""rock_img/I_Peridotite_06.jpg"" style=""width:8cm; height:7.53cm;""><p>What type of rock is this?</p>","1","class_response","0","test","21","Basalt","Peridotite","06","false","2","7","","","","","","","","","","","","","","","",""
"","","","","","","","","","","","html-keyboard-response","48","2.0.0","602866","6699b7e8a3fa22647d9ea5c3","3","12","null","","","","","","","","","<p style='font-size: 30px;'><strong>Okay</strong></p>","null","neutral_feedback","0","test","21","","","","","","","","","","","","","","","","","","","","","",""
"","","","","","","","","","","","html-button-response","49","2.0.0","603426","6699b7e8a3fa22647d9ea5c3","3","12","557","","","","","","","","","<img src= ""rock_img/I_Basalt_08.jpg"" style=""width:8cm; height:10.44cm;""><p>What type of rock is this?</p>","2","class_response","0","test","22","Diorite","Basalt","08","false","3","2","","","","","","","","","","","","","","","",""
"","","","","","","","","","","","html-keyboard-response","50","2.0.0","603929","6699b7e8a3fa22647d9ea5c3","3","12","null","","","","","","","","","<p style='font-size: 30px;'><strong>Okay</strong></p>","null","neutral_feedback","0","test","22","","","","","","","","","","","","","","","","","","","","","",""
"","","","","","","","","","","","html-button-response","51","2.0.0","604580","6699b7e8a3fa22647d9ea5c3","3","12","648","","","","","","","","","<img src= ""rock_img/I_Pumice_04.jpg"" style=""width:8cm; height:6.819999999999999cm;""><p>What type of rock is this?</p>","7","class_response","0","test","23","Pumice","Pumice","04","true","8","8","","","","","","","","","","","","","","","",""
"","","","","","","","","","","","html-keyboard-response","52","2.0.0","605083","6699b7e8a3fa22647d9ea5c3","3","12","null","","","","","","","","","<p style='font-size: 30px;'><strong>Okay</strong></p>","null","neutral_feedback","0","test","23","","","","","","","","","","","","","","","","","","","","","",""
"","","","","","","","","","","","html-button-response","53","2.0.0","606252","6699b7e8a3fa22647d9ea5c3","3","12","1166","","","","","","","","","<img src= ""rock_img/I_Gabbro_01.jpg"" style=""width:8cm; height:5.21cm;""><p>What type of rock is this?</p>","5","class_response","0","test","24","Pegmatite","Gabbro","01","false","6","4","","","","","","","","","","","","","","","",""
"","","","","","","","","","","","html-keyboard-response","54","2.0.0","606754","6699b7e8a3fa22647d9ea5c3","3","12","null","","","","","","","","","<p style='font-size: 30px;'><strong>Okay</strong></p>","null","neutral_feedback","0","test","24","","","","","","","","","","","","","","","","","","","","","",""
"","","","","","","","","","","","html-button-response","55","2.0.0","609830","6699b7e8a3fa22647d9ea5c3","3","12","3073","","","","","","","","","<img src= ""rock_img/I_Diorite_16.jpg"" style=""width:8cm; height:6.74cm;""><p>What type of rock is this?</p>","4","class_response","0","test","25","Obsidian","Diorite","16","false","5","3","","","","","","","","","","","","","","","",""
"","","","","","","","","","","","html-keyboard-response","56","2.0.0","610333","6699b7e8a3fa22647d9ea5c3","3","12","null","","","","","","","","","<p style='font-size: 30px;'><strong>Okay</strong></p>","null","neutral_feedback","0","test","25","","","","","","","","","","","","","","","","","","","","","",""
"","","","","","","","","","","","html-button-response","57","2.0.0","625120","6699b7e8a3fa22647d9ea5c3","3","12","14784","","","","","","","","","<img src= ""rock_img/I_Gabbro_03.jpg"" style=""width:8cm; height:8.52cm;""><p>What type of rock is this?</p>","5","class_response","0","test","26","Pegmatite","Gabbro","03","false","6","4","","","","","","","","","","","","","","","",""
"","","","","","","","","","","","html-keyboard-response","58","2.0.0","625622","6699b7e8a3fa22647d9ea5c3","3","12","null","","","","","","","","","<p style='font-size: 30px;'><strong>Okay</strong></p>","null","neutral_feedback","0","test","26","","","","","","","","","","","","","","","","","","","","","",""
"","","","","","","","","","","","html-button-response","59","2.0.0","626146","6699b7e8a3fa22647d9ea5c3","3","12","521","","","","","","","","","<img src= ""rock_img/I_Gabbro_15.jpg"" style=""width:8cm; height:6.29cm;""><p>What type of rock is this?</p>","6","class_response","0","test","27","Peridotite","Gabbro","15","false","7","4","","","","","","","","","","","","","","","",""
"","","","","","","","","","","","html-keyboard-response","60","2.0.0","626649","6699b7e8a3fa22647d9ea5c3","3","12","null","","","","","","","","","<p style='font-size: 30px;'><strong>Okay</strong></p>","null","neutral_feedback","0","test","27","","","","","","","","","","","","","","","","","","","","","",""
"","","","","","","","","","","","html-button-response","61","2.0.0","627291","6699b7e8a3fa22647d9ea5c3","3","12","640","","","","","","","","","<img src= ""rock_img/I_Pegmatite_03.jpg"" style=""width:8cm; height:5.239999999999999cm;""><p>What type of rock is this?</p>","7","class_response","0","test","28","Pumice","Pegmatite","03","false","8","6","","","","","","","","","","","","","","","",""
"","","","","","","","","","","","html-keyboard-response","62","2.0.0","627794","6699b7e8a3fa22647d9ea5c3","3","12","null","","","","","","","","","<p style='font-size: 30px;'><strong>Okay</strong></p>","null","neutral_feedback","0","test","28","","","","","","","","","","","","","","","","","","","","","",""
"","","","","","","","","","","","html-button-response","63","2.0.0","636639","6699b7e8a3fa22647d9ea5c3","3","12","8842","","","","","","","","","<img src= ""rock_img/I_Obsidian_14.jpg"" style=""width:8cm; height:7.64cm;""><p>What type of rock is this?</p>","6","class_response","0","test","29","Peridotite","Obsidian","14","false","7","5","","","","","","","","","","","","","","","",""
"","","","","","","","","","","","html-keyboard-response","64","2.0.0","637141","6699b7e8a3fa22647d9ea5c3","3","12","null","","","","","","","","","<p style='font-size: 30px;'><strong>Okay</strong></p>","null","neutral_feedback","0","test","29","","","","","","","","","","","","","","","","","","","","","",""
"","","","","","","","","","","","html-button-response","65","2.0.0","637568","6699b7e8a3fa22647d9ea5c3","3","12","424","","","","","","","","","<img src= ""rock_img/I_Obsidian_06.jpg"" style=""width:8cm; height:6.8cm;""><p>What type of rock is this?</p>","5","class_response","0","test","30","Pegmatite","Obsidian","06","false","6","5","","","","","","","","","","","","","","","",""
"","","","","","","","","","","","html-keyboard-response","66","2.0.0","638071","6699b7e8a3fa22647d9ea5c3","3","12","null","","","","","","","","","<p style='font-size: 30px;'><strong>Okay</strong></p>","null","neutral_feedback","0","test","30","","","","","","","","","","","","","","","","","","","","","",""
"","","","","","","","","","","","html-button-response","67","2.0.0","638370","6699b7e8a3fa22647d9ea5c3","3","12","296","","","","","","","","","<img src= ""rock_img/I_Andesite_01.jpg"" style=""width:8cm; height:5.87cm;""><p>What type of rock is this?</p>","6","class_response","0","test","31","Peridotite","Andesite","01","false","7","1","","","","","","","","","","","","","","","",""
"","","","","","","","","","","","html-keyboard-response","68","2.0.0","638872","6699b7e8a3fa22647d9ea5c3","3","12","null","","","","","","","","","<p style='font-size: 30px;'><strong>Okay</strong></p>","null","neutral_feedback","0","test","31","","","","","","","","","","","","","","","","","","","","","",""
"","","","","","","","","","","","html-button-response","69","2.0.0","639200","6699b7e8a3fa22647d9ea5c3","3","12","326","","","","","","","","","<img src= ""rock_img/I_Peridotite_07.jpg"" style=""width:8cm; height:4.83cm;""><p>What type of rock is this?</p>","7","class_response","0","test","32","Pumice","Peridotite","07","false","8","7","","","","","","","","","","","","","","","",""
"","","","","","","","","","","","html-keyboard-response","70","2.0.0","639702","6699b7e8a3fa22647d9ea5c3","3","12","null","","","","","","","","","<p style='font-size: 30px;'><strong>Okay</strong></p>","null","neutral_feedback","0","test","32","","","","","","","","","","","","","","","","","","","","","",""
"","","","","","","","","","","","html-button-response","71","2.0.0","640139","6699b7e8a3fa22647d9ea5c3","3","12","434","","","","","","","","","<img src= ""rock_img/I_Obsidian_16.jpg"" style=""width:8cm; height:9.3cm;""><p>What type of rock is this?</p>","1","class_response","0","test","33","Basalt","Obsidian","16","false","2","5","","","","","","","","","","","","","","","",""
"","","","","","","","","","","","html-keyboard-response","72","2.0.0","640641","6699b7e8a3fa22647d9ea5c3","3","12","null","","","","","","","","","<p style='font-size: 30px;'><strong>Okay</strong></p>","null","neutral_feedback","0","test","33","","","","","","","","","","","","","","","","","","","","","",""
"","","","","","","","","","","","html-button-response","73","2.0.0","641127","6699b7e8a3fa22647d9ea5c3","3","12","483","","","","","","","","","<img src= ""rock_img/I_Basalt_02.jpg"" style=""width:8cm; height:6.45cm;""><p>What type of rock is this?</p>","6","class_response","0","test","34","Peridotite","Basalt","02","false","7","2","","","","","","","","","","","","","","","",""
"","","","","","","","","","","","html-keyboard-response","74","2.0.0","641630","6699b7e8a3fa22647d9ea5c3","3","12","null","","","","","","","","","<p style='font-size: 30px;'><strong>Okay</strong></p>","null","neutral_feedback","0","test","34","","","","","","","","","","","","","","","","","","","","","",""
"","","","","","","","","","","","html-button-response","75","2.0.0","642740","6699b7e8a3fa22647d9ea5c3","3","12","1107","","","","","","","","","<img src= ""rock_img/I_Peridotite_16.jpg"" style=""width:8cm; height:6.989999999999999cm;""><p>What type of rock is this?</p>","7","class_response","0","test","35","Pumice","Peridotite","16","false","8","7","","","","","","","","","","","","","","","",""
"","","","","","","","","","","","html-keyboard-response","76","2.0.0","643243","6699b7e8a3fa22647d9ea5c3","3","12","null","","","","","","","","","<p style='font-size: 30px;'><strong>Okay</strong></p>","null","neutral_feedback","0","test","35","","","","","","","","","","","","","","","","","","","","","",""
"","","","","","","","","","","","html-button-response","77","2.0.0","645820","6699b7e8a3fa22647d9ea5c3","3","12","2574","","","","","","","","","<img src= ""rock_img/I_Basalt_05.jpg"" style=""width:8cm; height:8.18cm;""><p>What type of rock is this?</p>","5","class_response","0","test","36","Pegmatite","Basalt","05","false","6","2","","","","","","","","","","","","","","","",""
"","","","","","","","","","","","html-keyboard-response","78","2.0.0","646322","6699b7e8a3fa22647d9ea5c3","3","12","null","","","","","","","","","<p style='font-size: 30px;'><strong>Okay</strong></p>","null","neutral_feedback","0","test","36","","","","","","","","","","","","","","","","","","","","","",""
"","","","","","","","","","","","html-button-response","79","2.0.0","647297","6699b7e8a3fa22647d9ea5c3","3","12","971","","","","","","","","","<img src= ""rock_img/I_Pegmatite_10.jpg"" style=""width:8cm; height:4.16cm;""><p>What type of rock is this?</p>","6","class_response","0","test","37","Peridotite","Pegmatite","10","false","7","6","","","","","","","","","","","","","","","",""
"","","","","","","","","","","","html-keyboard-response","80","2.0.0","647799","6699b7e8a3fa22647d9ea5c3","3","12","null","","","","","","","","","<p style='font-size: 30px;'><strong>Okay</strong></p>","null","neutral_feedback","0","test","37","","","","","","","","","","","","","","","","","","","","","",""
"","","","","","","","","","","","html-button-response","81","2.0.0","648391","6699b7e8a3fa22647d9ea5c3","3","12","590","","","","","","","","","<img src= ""rock_img/I_Pegmatite_15.jpg"" style=""width:8cm; height:6cm;""><p>What type of rock is this?</p>","3","class_response","0","test","38","Gabbro","Pegmatite","15","false","4","6","","","","","","","","","","","","","","","",""
"","","","","","","","","","","","html-keyboard-response","82","2.0.0","648894","6699b7e8a3fa22647d9ea5c3","3","12","null","","","","","","","","","<p style='font-size: 30px;'><strong>Okay</strong></p>","null","neutral_feedback","0","test","38","","","","","","","","","","","","","","","","","","","","","",""
"","","","","","","","","","","","html-button-response","83","2.0.0","649399","6699b7e8a3fa22647d9ea5c3","3","12","503","","","","","","","","","<img src= ""rock_img/I_Pegmatite_08.jpg"" style=""width:8cm; height:7.68cm;""><p>What type of rock is this?</p>","5","class_response","0","test","39","Pegmatite","Pegmatite","08","true","6","6","","","","","","","","","","","","","","","",""
"","","","","","","","","","","","html-keyboard-response","84","2.0.0","649902","6699b7e8a3fa22647d9ea5c3","3","12","null","","","","","","","","","<p style='font-size: 30px;'><strong>Okay</strong></p>","null","neutral_feedback","0","test","39","","","","","","","","","","","","","","","","","","","","","",""
"","","","","","","","","","","","html-button-response","85","2.0.0","650503","6699b7e8a3fa22647d9ea5c3","3","12","598","","","","","","","","","<img src= ""rock_img/I_Obsidian_05.jpg"" style=""width:8cm; height:6.33cm;""><p>What type of rock is this?</p>","6","class_response","0","test","40","Peridotite","Obsidian","05","false","7","5","","","","","","","","","","","","","","","",""
"","","","","","","","","","","","html-keyboard-response","86","2.0.0","651005","6699b7e8a3fa22647d9ea5c3","3","12","null","","","","","","","","","<p style='font-size: 30px;'><strong>Okay</strong></p>","null","neutral_feedback","0","test","40","","","","","","","","","","","","","","","","","","","","","",""
"","","","","","","","","","","","html-button-response","87","2.0.0","651510","6699b7e8a3fa22647d9ea5c3","3","12","502","","","","","","","","","<img src= ""rock_img/I_Pumice_08.jpg"" style=""width:8cm; height:6.67cm;""><p>What type of rock is this?</p>","5","class_response","0","test","41","Pegmatite","Pumice","08","false","6","8","","","","","","","","","","","","","","","",""
"","","","","","","","","","","","html-keyboard-response","88","2.0.0","652012","6699b7e8a3fa22647d9ea5c3","3","12","null","","","","","","","","","<p style='font-size: 30px;'><strong>Okay</strong></p>","null","neutral_feedback","0","test","41","","","","","","","","","","","","","","","","","","","","","",""
"","","","","","","","","","","","html-button-response","89","2.0.0","652449","6699b7e8a3fa22647d9ea5c3","3","12","434","","","","","","","","","<img src= ""rock_img/I_Andesite_03.jpg"" style=""width:8cm; height:5.73cm;""><p>What type of rock is this?</p>","4","class_response","0","test","42","Obsidian","Andesite","03","false","5","1","","","","","","","","","","","","","","","",""
"","","","","","","","","","","","html-keyboard-response","90","2.0.0","652951","6699b7e8a3fa22647d9ea5c3","3","12","null","","","","","","","","","<p style='font-size: 30px;'><strong>Okay</strong></p>","null","neutral_feedback","0","test","42","","","","","","","","","","","","","","","","","","","","","",""
"","","","","","","","","","","","html-button-response","91","2.0.0","654190","6699b7e8a3fa22647d9ea5c3","3","12","1237","","","","","","","","","<img src= ""rock_img/I_Pumice_05.jpg"" style=""width:8cm; height:7.25cm;""><p>What type of rock is this?</p>","1","class_response","0","test","43","Basalt","Pumice","05","false","2","8","","","","","","","","","","","","","","","",""
"","","","","","","","","","","","html-keyboard-response","92","2.0.0","654692","6699b7e8a3fa22647d9ea5c3","3","12","null","","","","","","","","","<p style='font-size: 30px;'><strong>Okay</strong></p>","null","neutral_feedback","0","test","43","","","","","","","","","","","","","","","","","","","","","",""
"","","","","","","","","","","","html-button-response","93","2.0.0","655059","6699b7e8a3fa22647d9ea5c3","3","12","364","","","","","","","","","<img src= ""rock_img/I_Pegmatite_12.jpg"" style=""width:8cm; height:5.7cm;""><p>What type of rock is this?</p>","2","class_response","0","test","44","Diorite","Pegmatite","12","false","3","6","","","","","","","","","","","","","","","",""
"","","","","","","","","","","","html-keyboard-response","94","2.0.0","655562","6699b7e8a3fa22647d9ea5c3","3","12","null","","","","","","","","","<p style='font-size: 30px;'><strong>Okay</strong></p>","null","neutral_feedback","0","test","44","","","","","","","","","","","","","","","","","","","","","",""
"","","","","","","","","","","","html-button-response","95","2.0.0","655998","6699b7e8a3fa22647d9ea5c3","3","12","434","","","","","","","","","<img src= ""rock_img/I_Gabbro_10.jpg"" style=""width:8cm; height:5.680000000000001cm;""><p>What type of rock is this?</p>","1","class_response","0","test","45","Basalt","Gabbro","10","false","2","4","","","","","","","","","","","","","","","",""
"","","","","","","","","","","","html-keyboard-response","96","2.0.0","656500","6699b7e8a3fa22647d9ea5c3","3","12","null","","","","","","","","","<p style='font-size: 30px;'><strong>Okay</strong></p>","null","neutral_feedback","0","test","45","","","","","","","","","","","","","","","","","","","","","",""
"","","","","","","","","","","","html-button-response","97","2.0.0","656908","6699b7e8a3fa22647d9ea5c3","3","12","406","","","","","","","","","<img src= ""rock_img/I_Gabbro_11.jpg"" style=""width:8cm; height:6.2cm;""><p>What type of rock is this?</p>","2","class_response","0","test","46","Diorite","Gabbro","11","false","3","4","","","","","","","","","","","","","","","",""
"","","","","","","","","","","","html-keyboard-response","98","2.0.0","657410","6699b7e8a3fa22647d9ea5c3","3","12","null","","","","","","","","","<p style='font-size: 30px;'><strong>Okay</strong></p>","null","neutral_feedback","0","test","46","","","","","","","","","","","","","","","","","","","","","",""
"","","","","","","","","","","","html-button-response","99","2.0.0","657838","6699b7e8a3fa22647d9ea5c3","3","12","426","","","","","","","","","<img src= ""rock_img/I_Diorite_07.jpg"" style=""width:8cm; height:5.239999999999999cm;""><p>What type of rock is this?</p>","1","class_response","0","test","47","Basalt","Diorite","07","false","2","3","","","","","","","","","","","","","","","",""
"","","","","","","","","","","","html-keyboard-response","100","2.0.0","658341","6699b7e8a3fa22647d9ea5c3","3","12","null","","","","","","","","","<p style='font-size: 30px;'><strong>Okay</strong></p>","null","neutral_feedback","0","test","47","","","","","","","","","","","","","","","","","","","","","",""
"","","","","","","","","","","","html-button-response","101","2.0.0","658629","6699b7e8a3fa22647d9ea5c3","3","12","285","","","","","","","","","<img src= ""rock_img/I_Andesite_11.jpg"" style=""width:8cm; height:4.92cm;""><p>What type of rock is this?</p>","1","class_response","0","test","48","Basalt","Andesite","11","false","2","1","","","","","","","","","","","","","","","",""
"","","","","","","","","","","","html-keyboard-response","102","2.0.0","659131","6699b7e8a3fa22647d9ea5c3","3","12","null","","","","","","","","","<p style='font-size: 30px;'><strong>Okay</strong></p>","null","neutral_feedback","0","test","48","","","","","","","","","","","","","","","","","","","","","",""
"","","","","","","","","","","","instructions","103","2.0.0","663842","6699b7e8a3fa22647d9ea5c3","3","12","4656","","","","","","","","[{""page_index"":0,""viewing_time"":2378},{""page_index"":1,""viewing_time"":2278}]","","","","","","","","","","","","","","","","","","","","","","","","","","","",""
"","","","","","","","","","","","html-button-response","104","2.0.0","665514","6699b7e8a3fa22647d9ea5c3","3","12","1668","","","","","","","","","","0","start_train","","","","","","","","","","","","","","","","","","","","","","","","",""
"","","","","","","","","","","","html-button-response","106","2.0.0","667020","6699b7e8a3fa22647d9ea5c3","3","12","1502","","","","","","","","","<img src= ""rock_img/I_Obsidian_02.jpg"" style=""width:8cm; height:7.51cm;""><p>What type of rock is this?</p>","1","class_response","1","train","1","Basalt","Obsidian","02","false","2","5","","","","","","","","","","","","","","","",""
"","","","","","","","","","","","html-button-response","107","2.0.0","668282","6699b7e8a3fa22647d9ea5c3","3","12","1257","","","","","","","","","<img src= rock_img/I_Obsidian_02.jpg style=""width:8cm; height:7.51cm;""><p style='font-size: 30px; color: red;'><strong>Incorrect!</strong></p><p style='font-size: 30px;'><strong>This rock is obsidian</strong></p>","0","corr_feedback","1","train","1","","","","","","","","","","","","","","","","","","","","","",""
"","","","","","","","","","","","html-button-response","108","2.0.0","669036","6699b7e8a3fa22647d9ea5c3","3","12","749","","","","","","","","","<img src= ""rock_img/I_Diorite_14.jpg"" style=""width:8cm; height:5.71cm;""><p>What type of rock is this?</p>","6","class_response","1","train","2","Peridotite","Diorite","14","false","7","3","","","","","","","","","","","","","","","",""
"","","","","","","","","","","","html-button-response","109","2.0.0","669739","6699b7e8a3fa22647d9ea5c3","3","12","700","","","","","","","","","<img src= rock_img/I_Diorite_14.jpg style=""width:8cm; height:5.71cm;""><p style='font-size: 30px; color: red;'><strong>Incorrect!</strong></p><p style='font-size: 30px;'><strong>This rock is diorite</strong></p>","0","corr_feedback","1","train","2","","","","","","","","","","","","","","","","","","","","","",""
"","","","","","","","","","","","html-button-response","110","2.0.0","670414","6699b7e8a3fa22647d9ea5c3","3","12","672","","","","","","","","","<img src= ""rock_img/I_Gabbro_14.jpg"" style=""width:8cm; height:8.48cm;""><p>What type of rock is this?</p>","1","class_response","1","train","3","Basalt","Gabbro","14","false","2","4","","","","","","","","","","","","","","","",""
"","","","","","","","","","","","html-button-response","111","2.0.0","671147","6699b7e8a3fa22647d9ea5c3","3","12","730","","","","","","","","","<img src= rock_img/I_Gabbro_14.jpg style=""width:8cm; height:8.48cm;""><p style='font-size: 30px; color: red;'><strong>Incorrect!</strong></p><p style='font-size: 30px;'><strong>This rock is gabbro</strong></p>","0","corr_feedback","1","train","3","","","","","","","","","","","","","","","","","","","","","",""
"","","","","","","","","","","","html-button-response","112","2.0.0","671880","6699b7e8a3fa22647d9ea5c3","3","12","731","","","","","","","","","<img src= ""rock_img/I_Pumice_10.jpg"" style=""width:8cm; height:7.609999999999999cm;""><p>What type of rock is this?</p>","7","class_response","1","train","4","Pumice","Pumice","10","true","8","8","","","","","","","","","","","","","","","",""
"","","","","","","","","","","","html-button-response","113","2.0.0","672848","6699b7e8a3fa22647d9ea5c3","3","12","964","","","","","","","","","<img src= rock_img/I_Pumice_10.jpg style=""width:8cm; height:7.609999999999999cm;""><p style='font-size: 30px; color: green;'><strong>Correct!</strong></p><p style='font-size: 30px;'><strong>This rock is pumice</strong></p>","0","corr_feedback","1","train","4","","","","","","","","","","","","","","","","","","","","","",""
"","","","","","","","","","","","html-button-response","114","2.0.0","673651","6699b7e8a3fa22647d9ea5c3","3","12","800","","","","","","","","","<img src= ""rock_img/I_Diorite_13.jpg"" style=""width:8cm; height:6.29cm;""><p>What type of rock is this?</p>","4","class_response","1","train","5","Obsidian","Diorite","13","false","5","3","","","","","","","","","","","","","","","",""
"","","","","","","","","","","","html-button-response","115","2.0.0","674403","6699b7e8a3fa22647d9ea5c3","3","12","749","","","","","","","","","<img src= rock_img/I_Diorite_13.jpg style=""width:8cm; height:6.29cm;""><p style='font-size: 30px; color: red;'><strong>Incorrect!</strong></p><p style='font-size: 30px;'><strong>This rock is diorite</strong></p>","0","corr_feedback","1","train","5","","","","","","","","","","","","","","","","","","","","","",""
"","","","","","","","","","","","html-button-response","116","2.0.0","675139","6699b7e8a3fa22647d9ea5c3","3","12","733","","","","","","","","","<img src= ""rock_img/I_Peridotite_15.jpg"" style=""width:8cm; height:6cm;""><p>What type of rock is this?</p>","5","class_response","1","train","6","Pegmatite","Peridotite","15","false","6","7","","","","","","","","","","","","","","","",""
"","","","","","","","","","","","html-button-response","117","2.0.0","675723","6699b7e8a3fa22647d9ea5c3","3","12","582","","","","","","","","","<img src= rock_img/I_Peridotite_15.jpg style=""width:8cm; height:6cm;""><p style='font-size: 30px; color: red;'><strong>Incorrect!</strong></p><p style='font-size: 30px;'><strong>This rock is peridotite</strong></p>","0","corr_feedback","1","train","6","","","","","","","","","","","","","","","","","","","","","",""
"","","","","","","","","","","","html-button-response","118","2.0.0","676398","6699b7e8a3fa22647d9ea5c3","3","12","672","","","","","","","","","<img src= ""rock_img/I_Gabbro_13.jpg"" style=""width:8cm; height:5.08cm;""><p>What type of rock is this?</p>","2","class_response","1","train","7","Diorite","Gabbro","13","false","3","4","","","","","","","","","","","","","","","",""
"","","","","","","","","","","","html-button-response","119","2.0.0","677660","6699b7e8a3fa22647d9ea5c3","3","12","1260","","","","","","","","","<img src= rock_img/I_Gabbro_13.jpg style=""width:8cm; height:5.08cm;""><p style='font-size: 30px; color: red;'><strong>Incorrect!</strong></p><p style='font-size: 30px;'><strong>This rock is gabbro</strong></p>","0","corr_feedback","1","train","7","","","","","","","","","","","","","","","","","","","","","",""
"","","","","","","","","","","","html-button-response","120","2.0.0","678228","6699b7e8a3fa22647d9ea5c3","3","12","565","","","","","","","","","<img src= ""rock_img/I_Andesite_09.jpg"" style=""width:8cm; height:6cm;""><p>What type of rock is this?</p>","6","class_response","1","train","8","Peridotite","Andesite","09","false","7","1","","","","","","","","","","","","","","","",""
"","","","","","","","","","","","html-button-response","121","2.0.0","678844","6699b7e8a3fa22647d9ea5c3","3","12","613","","","","","","","","","<img src= rock_img/I_Andesite_09.jpg style=""width:8cm; height:6cm;""><p style='font-size: 30px; color: red;'><strong>Incorrect!</strong></p><p style='font-size: 30px;'><strong>This rock is andesite</strong></p>","0","corr_feedback","1","train","8","","","","","","","","","","","","","","","","","","","","","",""
"","","","","","","","","","","","html-button-response","122","2.0.0","681054","6699b7e8a3fa22647d9ea5c3","3","12","2207","","","","","","","","","<img src= ""rock_img/I_Basalt_12.jpg"" style=""width:8cm; height:6.010000000000001cm;""><p>What type of rock is this?</p>","7","class_response","1","train","9","Pumice","Basalt","12","false","8","2","","","","","","","","","","","","","","","",""
"","","","","","","","","","","","html-button-response","123","2.0.0","681904","6699b7e8a3fa22647d9ea5c3","3","12","848","","","","","","","","","<img src= rock_img/I_Basalt_12.jpg style=""width:8cm; height:6.010000000000001cm;""><p style='font-size: 30px; color: red;'><strong>Incorrect!</strong></p><p style='font-size: 30px;'><strong>This rock is basalt</strong></p>","0","corr_feedback","1","train","9","","","","","","","","","","","","","","","","","","","","","",""
"","","","","","","","","","","","html-button-response","124","2.0.0","682707","6699b7e8a3fa22647d9ea5c3","3","12","800","","","","","","","","","<img src= ""rock_img/I_Pegmatite_11.jpg"" style=""width:8cm; height:8.14cm;""><p>What type of rock is this?</p>","2","class_response","1","train","10","Diorite","Pegmatite","11","false","3","6","","","","","","","","","","","","","","","",""
"","","","","","","","","","","","html-button-response","125","2.0.0","683812","6699b7e8a3fa22647d9ea5c3","3","12","1102","","","","","","","","","<img src= rock_img/I_Pegmatite_11.jpg style=""width:8cm; height:8.14cm;""><p style='font-size: 30px; color: red;'><strong>Incorrect!</strong></p><p style='font-size: 30px;'><strong>This rock is pegmatite</strong></p>","0","corr_feedback","1","train","10","","","","","","","","","","","","","","","","","","","","","",""
"","","","","","","","","","","","html-button-response","126","2.0.0","684653","6699b7e8a3fa22647d9ea5c3","3","12","838","","","","","","","","","<img src= ""rock_img/I_Andesite_06.jpg"" style=""width:8cm; height:6.840000000000001cm;""><p>What type of rock is this?</p>","1","class_response","1","train","11","Basalt","Andesite","06","false","2","1","","","","","","","","","","","","","","","",""
"","","","","","","","","","","","html-button-response","127","2.0.0","685602","6699b7e8a3fa22647d9ea5c3","3","12","946","","","","","","","","","<img src= rock_img/I_Andesite_06.jpg style=""width:8cm; height:6.840000000000001cm;""><p style='font-size: 30px; color: red;'><strong>Incorrect!</strong></p><p style='font-size: 30px;'><strong>This rock is andesite</strong></p>","0","corr_feedback","1","train","11","","","","","","","","","","","","","","","","","","","","","",""
"","","","","","","","","","","","html-button-response","128","2.0.0","686629","6699b7e8a3fa22647d9ea5c3","3","12","1024","","","","","","","","","<img src= ""rock_img/I_Pumice_13.jpg"" style=""width:8cm; height:8.200000000000001cm;""><p>What type of rock is this?</p>","0","class_response","1","train","12","Andesite","Pumice","13","false","1","8","","","","","","","","","","","","","","","",""
"","","","","","","","","","","","html-button-response","129","2.0.0","687617","6699b7e8a3fa22647d9ea5c3","3","12","985","","","","","","","","","<img src= rock_img/I_Pumice_13.jpg style=""width:8cm; height:8.200000000000001cm;""><p style='font-size: 30px; color: red;'><strong>Incorrect!</strong></p><p style='font-size: 30px;'><strong>This rock is pumice</strong></p>","0","corr_feedback","1","train","12","","","","","","","","","","","","","","","","","","","","","",""
"","","","","","","","","","","","instructions","130","2.0.0","698667","6699b7e8a3fa22647d9ea5c3","3","12","11047","","","","","","","","[{""page_index"":0,""viewing_time"":4163},{""page_index"":1,""viewing_time"":2377},{""page_index"":2,""viewing_time"":2347},{""page_index"":3,""viewing_time"":2161}]","","","","","","","","","","","","","","","","","","","","","","","","","","","",""
"","","","","","","","","","","","html-button-response","131","2.0.0","699596","6699b7e8a3fa22647d9ea5c3","3","12","927","","","","","","","","","","0","start_train","","","","","","","","","","","","","","","","","","","","","","","","",""
"","","","","","","","","","","","html-button-response","132","2.0.0","704623","6699b7e8a3fa22647d9ea5c3","3","12","","","","","","","","","","","","cat_selection","1","train","1","","","","","","","2","8","5022.89999999851","Basalt","Pumice","[0.10555555555555557,0.15,0.10555555555555557,0.15,0.1277777777777778,0.1277777777777778,0.10555555555555557,0.1277777777777778]","[0.05710161764915082,null,0.14922148801243276,0.26295368619349996,0.059487196342048666,0.14844998171175092,0.16159604301942207,0.16118998707169477]","","","","","","","","",""
"","","","","","","","","","","","paired-cat-display","133","1.0.0","757086","6699b7e8a3fa22647d9ea5c3","3","12","","","","","","","","","","","","paired_cat_display","1","train","1","","","","","","","","","7015.5999999996275","","","","","Hard
Dark
Light","Coral
Soft
Light","45397.300000000745","","","","","",""
"","","","","","","","","","","","html-button-response","134","2.0.0","759071","6699b7e8a3fa22647d9ea5c3","3","12","","","","","","","","","","","","cat_selection","1","train","2","","","","","","","4","6","1970.7000000011176","Gabbro","Pegmatite","[0.10555555555555557,0.15,0.10555555555555557,0.15,0.1277777777777778,0.1277777777777778,0.10555555555555557,0.1277777777777778]","[0.05299216556457885,0.15567098238434643,0.15936788920009629,null,0.06203010484935547,0.2606306671624173,0.26335820509588825,0.045949985743317566]","","","","","","","","",""
"","","","","","","","","","","","paired-cat-display","135","1.0.0","807881","6699b7e8a3fa22647d9ea5c3","3","12","","","","","","","","","","","","paired_cat_display","1","train","2","","","","","","","","","15384.89999999851","","","","","","","33402.5","Weird
Hard
Pointy","Obtuse
Calico
Pretty","","","",""
"","","","","","","","","","","","html-button-response","136","2.0.0","809290","6699b7e8a3fa22647d9ea5c3","3","12","","","","","","","","","","","","cat_selection","1","train","3","","","","","","","2","4","1402.5999999996275","Basalt","Gabbro","[0.10555555555555557,0.15,0.10555555555555557,0.15,0.1277777777777778,0.1277777777777778,0.10555555555555557,0.1277777777777778]","[0.05710161764915082,null,0.14922148801243276,0.26295368619349996,0.059487196342048666,0.14844998171175092,0.16159604301942207,0.16118998707169477]","","","","","","","","",""
"","","","","","","","","","","","paired-cat-display","137","1.0.0","841612","6699b7e8a3fa22647d9ea5c3","3","12","","","","","","","","","","","","paired_cat_display","1","train","3","","","","","","","","","6114.799999998882","","","","","smooth
Dark
Grey
","","26169.300000000745","Square
Hard
Rock","","","","",""
"","","","","","","","","","","","instructions","138","2.0.0","845287","6699b7e8a3fa22647d9ea5c3","3","12","3667","","","","","","","","[{""page_index"":0,""viewing_time"":1487},{""page_index"":1,""viewing_time"":2180}]","","","","","","","","","","","","","","","","","","","","","","","","","","","",""
"","","","","","","","","","","","html-button-response","139","2.0.0","846645","6699b7e8a3fa22647d9ea5c3","3","12","1354","","","","","","","","","","0","start_test","","","","","","","","","","","","","","","","","","","","","","","","",""
"","","","","","","","","","","","html-button-response","140","2.0.0","847819","6699b7e8a3fa22647d9ea5c3","3","12","1170","","","","","","","","","<img src= ""rock_img/I_Obsidian_05.jpg"" style=""width:8cm; height:6.33cm;""><p>What type of rock is this?</p>","1","class_response","1","test","1","Basalt","Obsidian","05","false","2","5","","","","","","","","","","","","","","","",""
"","","","","","","","","","","","html-keyboard-response","141","2.0.0","848323","6699b7e8a3fa22647d9ea5c3","3","12","null","","","","","","","","","<p style='font-size: 30px;'><strong>Okay</strong></p>","null","neutral_feedback","1","test","1","","","","","","","","","","","","","","","","","","","","","",""
"","","","","","","","","","","","html-button-response","142","2.0.0","849052","6699b7e8a3fa22647d9ea5c3","3","12","724","","","","","","","","","<img src= ""rock_img/I_Diorite_07.jpg"" style=""width:8cm; height:5.239999999999999cm;""><p>What type of rock is this?</p>","5","class_response","1","test","2","Pegmatite","Diorite","07","false","6","3","","","","","","","","","","","","","","","",""
"","","","","","","","","","","","html-keyboard-response","143","2.0.0","849555","6699b7e8a3fa22647d9ea5c3","3","12","null","","","","","","","","","<p style='font-size: 30px;'><strong>Okay</strong></p>","null","neutral_feedback","1","test","2","","","","","","","","","","","","","","","","","","","","","",""
"","","","","","","","","","","","html-button-response","144","2.0.0","849834","6699b7e8a3fa22647d9ea5c3","3","12","276","","","","","","","","","<img src= ""rock_img/I_Obsidian_07.jpg"" style=""width:8cm; height:4.76cm;""><p>What type of rock is this?</p>","6","class_response","1","test","3","Peridotite","Obsidian","07","false","7","5","","","","","","","","","","","","","","","",""
"","","","","","","","","","","","html-keyboard-response","145","2.0.0","850337","6699b7e8a3fa22647d9ea5c3","3","12","null","","","","","","","","","<p style='font-size: 30px;'><strong>Okay</strong></p>","null","neutral_feedback","1","test","3","","","","","","","","","","","","","","","","","","","","","",""
"","","","","","","","","","","","html-button-response","146","2.0.0","851213","6699b7e8a3fa22647d9ea5c3","3","12","873","","","","","","","","","<img src= ""rock_img/I_Peridotite_16.jpg"" style=""width:8cm; height:6.989999999999999cm;""><p>What type of rock is this?</p>","1","class_response","1","test","4","Basalt","Peridotite","16","false","2","7","","","","","","","","","","","","","","","",""
"","","","","","","","","","","","html-keyboard-response","147","2.0.0","851716","6699b7e8a3fa22647d9ea5c3","3","12","null","","","","","","","","","<p style='font-size: 30px;'><strong>Okay</strong></p>","null","neutral_feedback","1","test","4","","","","","","","","","","","","","","","","","","","","","",""
"","","","","","","","","","","","html-button-response","148","2.0.0","852759","6699b7e8a3fa22647d9ea5c3","3","12","1039","","","","","","","","","<img src= ""rock_img/I_Peridotite_14.jpg"" style=""width:8cm; height:5.3cm;""><p>What type of rock is this?</p>","5","class_response","1","test","5","Pegmatite","Peridotite","14","false","6","7","","","","","","","","","","","","","","","",""
"","","","","","","","","","","","html-keyboard-response","149","2.0.0","853262","6699b7e8a3fa22647d9ea5c3","3","12","null","","","","","","","","","<p style='font-size: 30px;'><strong>Okay</strong></p>","null","neutral_feedback","1","test","5","","","","","","","","","","","","","","","","","","","","","",""
"","","","","","","","","","","","html-button-response","150","2.0.0","854117","6699b7e8a3fa22647d9ea5c3","3","12","851","","","","","","","","","<img src= ""rock_img/I_Diorite_11.jpg"" style=""width:8cm; height:7.11cm;""><p>What type of rock is this?</p>","7","class_response","1","test","6","Pumice","Diorite","11","false","8","3","","","","","","","","","","","","","","","",""
"","","","","","","","","","","","html-keyboard-response","151","2.0.0","854620","6699b7e8a3fa22647d9ea5c3","3","12","null","","","","","","","","","<p style='font-size: 30px;'><strong>Okay</strong></p>","null","neutral_feedback","1","test","6","","","","","","","","","","","","","","","","","","","","","",""
"","","","","","","","","","","","html-button-response","152","2.0.0","855056","6699b7e8a3fa22647d9ea5c3","3","12","433","","","","","","","","","<img src= ""rock_img/I_Andesite_03.jpg"" style=""width:8cm; height:5.73cm;""><p>What type of rock is this?</p>","3","class_response","1","test","7","Gabbro","Andesite","03","false","4","1","","","","","","","","","","","","","","","",""
"","","","","","","","","","","","html-keyboard-response","153","2.0.0","855559","6699b7e8a3fa22647d9ea5c3","3","12","null","","","","","","","","","<p style='font-size: 30px;'><strong>Okay</strong></p>","null","neutral_feedback","1","test","7","","","","","","","","","","","","","","","","","","","","","",""
"","","","","","","","","","","","html-button-response","154","2.0.0","856044","6699b7e8a3fa22647d9ea5c3","3","12","482","","","","","","","","","<img src= ""rock_img/I_Obsidian_16.jpg"" style=""width:8cm; height:9.3cm;""><p>What type of rock is this?</p>","2","class_response","1","test","8","Diorite","Obsidian","16","false","3","5","","","","","","","","","","","","","","","",""
"","","","","","","","","","","","html-keyboard-response","155","2.0.0","856547","6699b7e8a3fa22647d9ea5c3","3","12","null","","","","","","","","","<p style='font-size: 30px;'><strong>Okay</strong></p>","null","neutral_feedback","1","test","8","","","","","","","","","","","","","","","","","","","","","",""
"","","","","","","","","","","","html-button-response","156","2.0.0","857345","6699b7e8a3fa22647d9ea5c3","3","12","794","","","","","","","","","<img src= ""rock_img/I_Pegmatite_16.jpg"" style=""width:8cm; height:5.8cm;""><p>What type of rock is this?</p>","7","class_response","1","test","9","Pumice","Pegmatite","16","false","8","6","","","","","","","","","","","","","","","",""
"","","","","","","","","","","","html-keyboard-response","157","2.0.0","857850","6699b7e8a3fa22647d9ea5c3","3","12","null","","","","","","","","","<p style='font-size: 30px;'><strong>Okay</strong></p>","null","neutral_feedback","1","test","9","","","","","","","","","","","","","","","","","","","","","",""
"","","","","","","","","","","","html-button-response","158","2.0.0","858323","6699b7e8a3fa22647d9ea5c3","3","12","470","","","","","","","","","<img src= ""rock_img/I_Obsidian_04.jpg"" style=""width:8cm; height:6.930000000000001cm;""><p>What type of rock is this?</p>","6","class_response","1","test","10","Peridotite","Obsidian","04","false","7","5","","","","","","","","","","","","","","","",""
"","","","","","","","","","","","html-keyboard-response","159","2.0.0","858826","6699b7e8a3fa22647d9ea5c3","3","12","null","","","","","","","","","<p style='font-size: 30px;'><strong>Okay</strong></p>","null","neutral_feedback","1","test","10","","","","","","","","","","","","","","","","","","","","","",""
"","","","","","","","","","","","html-button-response","160","2.0.0","859301","6699b7e8a3fa22647d9ea5c3","3","12","469","","","","","","","","","<img src= ""rock_img/I_Gabbro_11.jpg"" style=""width:8cm; height:6.2cm;""><p>What type of rock is this?</p>","7","class_response","1","test","11","Pumice","Gabbro","11","false","8","4","","","","","","","","","","","","","","","",""
"","","","","","","","","","","","html-keyboard-response","161","2.0.0","859804","6699b7e8a3fa22647d9ea5c3","3","12","null","","","","","","","","","<p style='font-size: 30px;'><strong>Okay</strong></p>","null","neutral_feedback","1","test","11","","","","","","","","","","","","","","","","","","","","","",""
"","","","","","","","","","","","html-button-response","162","2.0.0","860259","6699b7e8a3fa22647d9ea5c3","3","12","452","","","","","","","","","<img src= ""rock_img/I_Obsidian_06.jpg"" style=""width:8cm; height:6.8cm;""><p>What type of rock is this?</p>","5","class_response","1","test","12","Pegmatite","Obsidian","06","false","6","5","","","","","","","","","","","","","","","",""
"","","","","","","","","","","","html-keyboard-response","163","2.0.0","860765","6699b7e8a3fa22647d9ea5c3","3","12","null","","","","","","","","","<p style='font-size: 30px;'><strong>Okay</strong></p>","null","neutral_feedback","1","test","12","","","","","","","","","","","","","","","","","","","","","",""
"","","","","","","","","","","","html-button-response","164","2.0.0","861158","6699b7e8a3fa22647d9ea5c3","3","12","390","","","","","","","","","<img src= ""rock_img/I_Basalt_14.jpg"" style=""width:8cm; height:5.82cm;""><p>What type of rock is this?</p>","6","class_response","1","test","13","Peridotite","Basalt","14","false","7","2","","","","","","","","","","","","","","","",""
"","","","","","","","","","","","html-keyboard-response","165","2.0.0","861662","6699b7e8a3fa22647d9ea5c3","3","12","null","","","","","","","","","<p style='font-size: 30px;'><strong>Okay</strong></p>","null","neutral_feedback","1","test","13","","","","","","","","","","","","","","","","","","","","","",""
"","","","","","","","","","","","html-button-response","166","2.0.0","862068","6699b7e8a3fa22647d9ea5c3","3","12","403","","","","","","","","","<img src= ""rock_img/I_Gabbro_05.jpg"" style=""width:8cm; height:6cm;""><p>What type of rock is this?</p>","5","class_response","1","test","14","Pegmatite","Gabbro","05","false","6","4","","","","","","","","","","","","","","","",""
"","","","","","","","","","","","html-keyboard-response","167","2.0.0","862571","6699b7e8a3fa22647d9ea5c3","3","12","null","","","","","","","","","<p style='font-size: 30px;'><strong>Okay</strong></p>","null","neutral_feedback","1","test","14","","","","","","","","","","","","","","","","","","","","","",""
"","","","","","","","","","","","html-button-response","168","2.0.0","862919","6699b7e8a3fa22647d9ea5c3","3","12","345","","","","","","","","","<img src= ""rock_img/I_Peridotite_12.jpg"" style=""width:8cm; height:4.54cm;""><p>What type of rock is this?</p>","2","class_response","1","test","15","Diorite","Peridotite","12","false","3","7","","","","","","","","","","","","","","","",""
"","","","","","","","","","","","html-keyboard-response","169","2.0.0","863422","6699b7e8a3fa22647d9ea5c3","3","12","null","","","","","","","","","<p style='font-size: 30px;'><strong>Okay</strong></p>","null","neutral_feedback","1","test","15","","","","","","","","","","","","","","","","","","","","","",""
"","","","","","","","","","","","html-button-response","170","2.0.0","864581","6699b7e8a3fa22647d9ea5c3","3","12","1156","","","","","","","","","<img src= ""rock_img/I_Basalt_05.jpg"" style=""width:8cm; height:8.18cm;""><p>What type of rock is this?</p>","0","class_response","1","test","16","Andesite","Basalt","05","false","1","2","","","","","","","","","","","","","","","",""
"","","","","","","","","","","","html-keyboard-response","171","2.0.0","865083","6699b7e8a3fa22647d9ea5c3","3","12","null","","","","","","","","","<p style='font-size: 30px;'><strong>Okay</strong></p>","null","neutral_feedback","1","test","16","","","","","","","","","","","","","","","","","","","","","",""
"","","","","","","","","","","","html-button-response","172","2.0.0","865393","6699b7e8a3fa22647d9ea5c3","3","12","306","","","","","","","","","<img src= ""rock_img/I_Peridotite_06.jpg"" style=""width:8cm; height:7.53cm;""><p>What type of rock is this?</p>","2","class_response","1","test","17","Diorite","Peridotite","06","false","3","7","","","","","","","","","","","","","","","",""
"","","","","","","","","","","","html-keyboard-response","173","2.0.0","865897","6699b7e8a3fa22647d9ea5c3","3","12","null","","","","","","","","","<p style='font-size: 30px;'><strong>Okay</strong></p>","null","neutral_feedback","1","test","17","","","","","","","","","","","","","","","","","","","","","",""
"","","","","","","","","","","","html-button-response","174","2.0.0","866224","6699b7e8a3fa22647d9ea5c3","3","12","324","","","","","","","","","<img src= ""rock_img/I_Andesite_11.jpg"" style=""width:8cm; height:4.92cm;""><p>What type of rock is this?</p>","4","class_response","1","test","18","Obsidian","Andesite","11","false","5","1","","","","","","","","","","","","","","","",""
"","","","","","","","","","","","html-keyboard-response","175","2.0.0","866729","6699b7e8a3fa22647d9ea5c3","3","12","null","","","","","","","","","<p style='font-size: 30px;'><strong>Okay</strong></p>","null","neutral_feedback","1","test","18","","","","","","","","","","","","","","","","","","","","","",""
"","","","","","","","","","","","html-button-response","176","2.0.0","867075","6699b7e8a3fa22647d9ea5c3","3","12","342","","","","","","","","","<img src= ""rock_img/I_Pumice_04.jpg"" style=""width:8cm; height:6.819999999999999cm;""><p>What type of rock is this?</p>","2","class_response","1","test","19","Diorite","Pumice","04","false","3","8","","","","","","","","","","","","","","","",""
"","","","","","","","","","","","html-keyboard-response","177","2.0.0","867579","6699b7e8a3fa22647d9ea5c3","3","12","null","","","","","","","","","<p style='font-size: 30px;'><strong>Okay</strong></p>","null","neutral_feedback","1","test","19","","","","","","","","","","","","","","","","","","","","","",""
"","","","","","","","","","","","html-button-response","178","2.0.0","867829","6699b7e8a3fa22647d9ea5c3","3","12","246","","","","","","","","","<img src= ""rock_img/I_Andesite_01.jpg"" style=""width:8cm; height:5.87cm;""><p>What type of rock is this?</p>","4","class_response","1","test","20","Obsidian","Andesite","01","false","5","1","","","","","","","","","","","","","","","",""
"","","","","","","","","","","","html-keyboard-response","179","2.0.0","868332","6699b7e8a3fa22647d9ea5c3","3","12","null","","","","","","","","","<p style='font-size: 30px;'><strong>Okay</strong></p>","null","neutral_feedback","1","test","20","","","","","","","","","","","","","","","","","","","","","",""
"","","","","","","","","","","","html-button-response","180","2.0.0","869217","6699b7e8a3fa22647d9ea5c3","3","12","878","","","","","","","","","<img src= ""rock_img/I_Andesite_05.jpg"" style=""width:8cm; height:4.12cm;""><p>What type of rock is this?</p>","6","class_response","1","test","21","Peridotite","Andesite","05","false","7","1","","","","","","","","","","","","","","","",""
"","","","","","","","","","","","html-keyboard-response","181","2.0.0","869721","6699b7e8a3fa22647d9ea5c3","3","12","null","","","","","","","","","<p style='font-size: 30px;'><strong>Okay</strong></p>","null","neutral_feedback","1","test","21","","","","","","","","","","","","","","","","","","","","","",""
"","","","","","","","","","","","html-button-response","182","2.0.0","869931","6699b7e8a3fa22647d9ea5c3","3","12","208","","","","","","","","","<img src= ""rock_img/I_Pumice_14.jpg"" style=""width:8cm; height:6.39cm;""><p>What type of rock is this?</p>","0","class_response","1","test","22","Andesite","Pumice","14","false","1","8","","","","","","","","","","","","","","","",""
"","","","","","","","","","","","html-keyboard-response","183","2.0.0","870434","6699b7e8a3fa22647d9ea5c3","3","12","null","","","","","","","","","<p style='font-size: 30px;'><strong>Okay</strong></p>","null","neutral_feedback","1","test","22","","","","","","","","","","","","","","","","","","","","","",""
"","","","","","","","","","","","html-button-response","184","2.0.0","870723","6699b7e8a3fa22647d9ea5c3","3","12","286","","","","","","","","","<img src= ""rock_img/I_Diorite_15.jpg"" style=""width:8cm; height:5.54cm;""><p>What type of rock is this?</p>","6","class_response","1","test","23","Peridotite","Diorite","15","false","7","3","","","","","","","","","","","","","","","",""
"","","","","","","","","","","","html-keyboard-response","185","2.0.0","871226","6699b7e8a3fa22647d9ea5c3","3","12","null","","","","","","","","","<p style='font-size: 30px;'><strong>Okay</strong></p>","null","neutral_feedback","1","test","23","","","","","","","","","","","","","","","","","","","","","",""
"","","","","","","","","","","","html-button-response","186","2.0.0","871547","6699b7e8a3fa22647d9ea5c3","3","12","318","","","","","","","","","<img src= ""rock_img/I_Gabbro_01.jpg"" style=""width:8cm; height:5.21cm;""><p>What type of rock is this?</p>","5","class_response","1","test","24","Pegmatite","Gabbro","01","false","6","4","","","","","","","","","","","","","","","",""
"","","","","","","","","","","","html-keyboard-response","187","2.0.0","872051","6699b7e8a3fa22647d9ea5c3","3","12","null","","","","","","","","","<p style='font-size: 30px;'><strong>Okay</strong></p>","null","neutral_feedback","1","test","24","","","","","","","","","","","","","","","","","","","","","",""
"","","","","","","","","","","","html-button-response","188","2.0.0","872405","6699b7e8a3fa22647d9ea5c3","3","12","352","","","","","","","","","<img src= ""rock_img/I_Basalt_02.jpg"" style=""width:8cm; height:6.45cm;""><p>What type of rock is this?</p>","2","class_response","1","test","25","Diorite","Basalt","02","false","3","2","","","","","","","","","","","","","","","",""
"","","","","","","","","","","","html-keyboard-response","189","2.0.0","872908","6699b7e8a3fa22647d9ea5c3","3","12","null","","","","","","","","","<p style='font-size: 30px;'><strong>Okay</strong></p>","null","neutral_feedback","1","test","25","","","","","","","","","","","","","","","","","","","","","",""
"","","","","","","","","","","","html-button-response","190","2.0.0","873239","6699b7e8a3fa22647d9ea5c3","3","12","328","","","","","","","","","<img src= ""rock_img/I_Diorite_10.jpg"" style=""width:8cm; height:5.949999999999999cm;""><p>What type of rock is this?</p>","4","class_response","1","test","26","Obsidian","Diorite","10","false","5","3","","","","","","","","","","","","","","","",""
"","","","","","","","","","","","html-keyboard-response","191","2.0.0","873743","6699b7e8a3fa22647d9ea5c3","3","12","null","","","","","","","","","<p style='font-size: 30px;'><strong>Okay</strong></p>","null","neutral_feedback","1","test","26","","","","","","","","","","","","","","","","","","","","","",""
"","","","","","","","","","","","html-button-response","192","2.0.0","874753","6699b7e8a3fa22647d9ea5c3","3","12","1006","","","","","","","","","<img src= ""rock_img/I_Diorite_16.jpg"" style=""width:8cm; height:6.74cm;""><p>What type of rock is this?</p>","6","class_response","1","test","27","Peridotite","Diorite","16","false","7","3","","","","","","","","","","","","","","","",""
"","","","","","","","","","","","html-keyboard-response","193","2.0.0","875256","6699b7e8a3fa22647d9ea5c3","3","12","null","","","","","","","","","<p style='font-size: 30px;'><strong>Okay</strong></p>","null","neutral_feedback","1","test","27","","","","","","","","","","","","","","","","","","","","","",""
"","","","","","","","","","","","html-button-response","194","2.0.0","876163","6699b7e8a3fa22647d9ea5c3","3","12","904","","","","","","","","","<img src= ""rock_img/I_Pegmatite_10.jpg"" style=""width:8cm; height:4.16cm;""><p>What type of rock is this?</p>","7","class_response","1","test","28","Pumice","Pegmatite","10","false","8","6","","","","","","","","","","","","","","","",""
"","","","","","","","","","","","html-keyboard-response","195","2.0.0","876666","6699b7e8a3fa22647d9ea5c3","3","12","null","","","","","","","","","<p style='font-size: 30px;'><strong>Okay</strong></p>","null","neutral_feedback","1","test","28","","","","","","","","","","","","","","","","","","","","","",""
"","","","","","","","","","","","html-button-response","196","2.0.0","877022","6699b7e8a3fa22647d9ea5c3","3","12","353","","","","","","","","","<img src= ""rock_img/I_Basalt_01.jpg"" style=""width:8cm; height:7.880000000000001cm;""><p>What type of rock is this?</p>","1","class_response","1","test","29","Basalt","Basalt","01","true","2","2","","","","","","","","","","","","","","","",""
"","","","","","","","","","","","html-keyboard-response","197","2.0.0","877525","6699b7e8a3fa22647d9ea5c3","3","12","null","","","","","","","","","<p style='font-size: 30px;'><strong>Okay</strong></p>","null","neutral_feedback","1","test","29","","","","","","","","","","","","","","","","","","","","","",""
"","","","","","","","","","","","html-button-response","198","2.0.0","878518","6699b7e8a3fa22647d9ea5c3","3","12","990","","","","","","","","","<img src= ""rock_img/I_Basalt_09.jpg"" style=""width:8cm; height:6.2cm;""><p>What type of rock is this?</p>","6","class_response","1","test","30","Peridotite","Basalt","09","false","7","2","","","","","","","","","","","","","","","",""
"","","","","","","","","","","","html-keyboard-response","199","2.0.0","879022","6699b7e8a3fa22647d9ea5c3","3","12","null","","","","","","","","","<p style='font-size: 30px;'><strong>Okay</strong></p>","null","neutral_feedback","1","test","30","","","","","","","","","","","","","","","","","","","","","",""
"","","","","","","","","","","","html-button-response","200","2.0.0","879329","6699b7e8a3fa22647d9ea5c3","3","12","305","","","","","","","","","<img src= ""rock_img/I_Gabbro_03.jpg"" style=""width:8cm; height:8.52cm;""><p>What type of rock is this?</p>","0","class_response","1","test","31","Andesite","Gabbro","03","false","1","4","","","","","","","","","","","","","","","",""
"","","","","","","","","","","","html-keyboard-response","201","2.0.0","879833","6699b7e8a3fa22647d9ea5c3","3","12","null","","","","","","","","","<p style='font-size: 30px;'><strong>Okay</strong></p>","null","neutral_feedback","1","test","31","","","","","","","","","","","","","","","","","","","","","",""
"","","","","","","","","","","","html-button-response","202","2.0.0","880621","6699b7e8a3fa22647d9ea5c3","3","12","782","","","","","","","","","<img src= ""rock_img/I_Pumice_09.jpg"" style=""width:8cm; height:6.44cm;""><p>What type of rock is this?</p>","5","class_response","1","test","32","Pegmatite","Pumice","09","false","6","8","","","","","","","","","","","","","","","",""
"","","","","","","","","","","","html-keyboard-response","203","2.0.0","881124","6699b7e8a3fa22647d9ea5c3","3","12","null","","","","","","","","","<p style='font-size: 30px;'><strong>Okay</strong></p>","null","neutral_feedback","1","test","32","","","","","","","","","","","","","","","","","","","","","",""
"","","","","","","","","","","","html-button-response","204","2.0.0","881599","6699b7e8a3fa22647d9ea5c3","3","12","471","","","","","","","","","<img src= ""rock_img/I_Diorite_08.jpg"" style=""width:8cm; height:6.37cm;""><p>What type of rock is this?</p>","6","class_response","1","test","33","Peridotite","Diorite","08","false","7","3","","","","","","","","","","","","","","","",""
"","","","","","","","","","","","html-keyboard-response","205","2.0.0","882102","6699b7e8a3fa22647d9ea5c3","3","12","null","","","","","","","","","<p style='font-size: 30px;'><strong>Okay</strong></p>","null","neutral_feedback","1","test","33","","","","","","","","","","","","","","","","","","","","","",""
"","","","","","","","","","","","html-button-response","206","2.0.0","883144","6699b7e8a3fa22647d9ea5c3","3","12","1038","","","","","","","","","<img src= ""rock_img/I_Obsidian_14.jpg"" style=""width:8cm; height:7.64cm;""><p>What type of rock is this?</p>","5","class_response","1","test","34","Pegmatite","Obsidian","14","false","6","5","","","","","","","","","","","","","","","",""
"","","","","","","","","","","","html-keyboard-response","207","2.0.0","883646","6699b7e8a3fa22647d9ea5c3","3","12","null","","","","","","","","","<p style='font-size: 30px;'><strong>Okay</strong></p>","null","neutral_feedback","1","test","34","","","","","","","","","","","","","","","","","","","","","",""
"","","","","","","","","","","","html-button-response","208","2.0.0","884141","6699b7e8a3fa22647d9ea5c3","3","12","491","","","","","","","","","<img src= ""rock_img/I_Pumice_05.jpg"" style=""width:8cm; height:7.25cm;""><p>What type of rock is this?</p>","6","class_response","1","test","35","Peridotite","Pumice","05","false","7","8","","","","","","","","","","","","","","","",""
"","","","","","","","","","","","html-keyboard-response","209","2.0.0","884645","6699b7e8a3fa22647d9ea5c3","3","12","null","","","","","","","","","<p style='font-size: 30px;'><strong>Okay</strong></p>","null","neutral_feedback","1","test","35","","","","","","","","","","","","","","","","","","","","","",""
"","","","","","","","","","","","html-button-response","210","2.0.0","885423","6699b7e8a3fa22647d9ea5c3","3","12","775","","","","","","","","","<img src= ""rock_img/I_Peridotite_07.jpg"" style=""width:8cm; height:4.83cm;""><p>What type of rock is this?</p>","4","class_response","1","test","36","Obsidian","Peridotite","07","false","5","7","","","","","","","","","","","","","","","",""
"","","","","","","","","","","","html-keyboard-response","211","2.0.0","885925","6699b7e8a3fa22647d9ea5c3","3","12","null","","","","","","","","","<p style='font-size: 30px;'><strong>Okay</strong></p>","null","neutral_feedback","1","test","36","","","","","","","","","","","","","","","","","","","","","",""
"","","","","","","","","","","","html-button-response","212","2.0.0","886315","6699b7e8a3fa22647d9ea5c3","3","12","386","","","","","","","","","<img src= ""rock_img/I_Pegmatite_15.jpg"" style=""width:8cm; height:6cm;""><p>What type of rock is this?</p>","5","class_response","1","test","37","Pegmatite","Pegmatite","15","true","6","6","","","","","","","","","","","","","","","",""
"","","","","","","","","","","","html-keyboard-response","213","2.0.0","886818","6699b7e8a3fa22647d9ea5c3","3","12","null","","","","","","","","","<p style='font-size: 30px;'><strong>Okay</strong></p>","null","neutral_feedback","1","test","37","","","","","","","","","","","","","","","","","","","","","",""
"","","","","","","","","","","","html-button-response","214","2.0.0","887332","6699b7e8a3fa22647d9ea5c3","3","12","510","","","","","","","","","<img src= ""rock_img/I_Gabbro_15.jpg"" style=""width:8cm; height:6.29cm;""><p>What type of rock is this?</p>","6","class_response","1","test","38","Peridotite","Gabbro","15","false","7","4","","","","","","","","","","","","","","","",""
"","","","","","","","","","","","html-keyboard-response","215","2.0.0","887837","6699b7e8a3fa22647d9ea5c3","3","12","null","","","","","","","","","<p style='font-size: 30px;'><strong>Okay</strong></p>","null","neutral_feedback","1","test","38","","","","","","","","","","","","","","","","","","","","","",""
"","","","","","","","","","","","html-button-response","216","2.0.0","888895","6699b7e8a3fa22647d9ea5c3","3","12","1056","","","","","","","","","<img src= ""rock_img/I_Basalt_08.jpg"" style=""width:8cm; height:10.44cm;""><p>What type of rock is this?</p>","0","class_response","1","test","39","Andesite","Basalt","08","false","1","2","","","","","","","","","","","","","","","",""
"","","","","","","","","","","","html-keyboard-response","217","2.0.0","889398","6699b7e8a3fa22647d9ea5c3","3","12","null","","","","","","","","","<p style='font-size: 30px;'><strong>Okay</strong></p>","null","neutral_feedback","1","test","39","","","","","","","","","","","","","","","","","","","","","",""
"","","","","","","","","","","","html-button-response","218","2.0.0","890206","6699b7e8a3fa22647d9ea5c3","3","12","805","","","","","","","","","<img src= ""rock_img/I_Pegmatite_12.jpg"" style=""width:8cm; height:5.7cm;""><p>What type of rock is this?</p>","5","class_response","1","test","40","Pegmatite","Pegmatite","12","true","6","6","","","","","","","","","","","","","","","",""
"","","","","","","","","","","","html-keyboard-response","219","2.0.0","890709","6699b7e8a3fa22647d9ea5c3","3","12","null","","","","","","","","","<p style='font-size: 30px;'><strong>Okay</strong></p>","null","neutral_feedback","1","test","40","","","","","","","","","","","","","","","","","","","","","",""
"","","","","","","","","","","","html-button-response","220","2.0.0","891185","6699b7e8a3fa22647d9ea5c3","3","12","471","","","","","","","","","<img src= ""rock_img/I_Peridotite_02.jpg"" style=""width:8cm; height:5.859999999999999cm;""><p>What type of rock is this?</p>","6","class_response","1","test","41","Peridotite","Peridotite","02","true","7","7","","","","","","","","","","","","","","","",""
"","","","","","","","","","","","html-keyboard-response","221","2.0.0","891689","6699b7e8a3fa22647d9ea5c3","3","12","null","","","","","","","","","<p style='font-size: 30px;'><strong>Okay</strong></p>","null","neutral_feedback","1","test","41","","","","","","","","","","","","","","","","","","","","","",""
"","","","","","","","","","","","html-button-response","222","2.0.0","892563","6699b7e8a3fa22647d9ea5c3","3","12","871","","","","","","","","","<img src= ""rock_img/I_Pegmatite_08.jpg"" style=""width:8cm; height:7.68cm;""><p>What type of rock is this?</p>","5","class_response","1","test","42","Pegmatite","Pegmatite","08","true","6","6","","","","","","","","","","","","","","","",""
"","","","","","","","","","","","html-keyboard-response","223","2.0.0","893066","6699b7e8a3fa22647d9ea5c3","3","12","null","","","","","","","","","<p style='font-size: 30px;'><strong>Okay</strong></p>","null","neutral_feedback","1","test","42","","","","","","","","","","","","","","","","","","","","","",""
"","","","","","","","","","","","html-button-response","224","2.0.0","893786","6699b7e8a3fa22647d9ea5c3","3","12","717","","","","","","","","","<img src= ""rock_img/I_Pumice_08.jpg"" style=""width:8cm; height:6.67cm;""><p>What type of rock is this?</p>","6","class_response","1","test","43","Peridotite","Pumice","08","false","7","8","","","","","","","","","","","","","","","",""
"","","","","","","","","","","","html-keyboard-response","225","2.0.0","894290","6699b7e8a3fa22647d9ea5c3","3","12","null","","","","","","","","","<p style='font-size: 30px;'><strong>Okay</strong></p>","null","neutral_feedback","1","test","43","","","","","","","","","","","","","","","","","","","","","",""
"","","","","","","","","","","","html-button-response","226","2.0.0","895527","6699b7e8a3fa22647d9ea5c3","3","12","1234","","","","","","","","","<img src= ""rock_img/I_Andesite_07.jpg"" style=""width:8cm; height:5.93cm;""><p>What type of rock is this?</p>","5","class_response","1","test","44","Pegmatite","Andesite","07","false","6","1","","","","","","","","","","","","","","","",""
"","","","","","","","","","","","html-keyboard-response","227","2.0.0","896029","6699b7e8a3fa22647d9ea5c3","3","12","null","","","","","","","","","<p style='font-size: 30px;'><strong>Okay</strong></p>","null","neutral_feedback","1","test","44","","","","","","","","","","","","","","","","","","","","","",""
"","","","","","","","","","","","html-button-response","228","2.0.0","896544","6699b7e8a3fa22647d9ea5c3","3","12","512","","","","","","","","","<img src= ""rock_img/I_Gabbro_10.jpg"" style=""width:8cm; height:5.680000000000001cm;""><p>What type of rock is this?</p>","6","class_response","1","test","45","Peridotite","Gabbro","10","false","7","4","","","","","","","","","","","","","","","",""
"","","","","","","","","","","","html-keyboard-response","229","2.0.0","897051","6699b7e8a3fa22647d9ea5c3","3","12","null","","","","","","","","","<p style='font-size: 30px;'><strong>Okay</strong></p>","null","neutral_feedback","1","test","45","","","","","","","","","","","","","","","","","","","","","",""
"","","","","","","","","","","","html-button-response","230","2.0.0","897337","6699b7e8a3fa22647d9ea5c3","3","12","282","","","","","","","","","<img src= ""rock_img/I_Pegmatite_03.jpg"" style=""width:8cm; height:5.239999999999999cm;""><p>What type of rock is this?</p>","5","class_response","1","test","46","Pegmatite","Pegmatite","03","true","6","6","","","","","","","","","","","","","","","",""
"","","","","","","","","","","","html-keyboard-response","231","2.0.0","897840","6699b7e8a3fa22647d9ea5c3","3","12","null","","","","","","","","","<p style='font-size: 30px;'><strong>Okay</strong></p>","null","neutral_feedback","1","test","46","","","","","","","","","","","","","","","","","","","","","",""
"","","","","","","","","","","","html-button-response","232","2.0.0","898324","6699b7e8a3fa22647d9ea5c3","3","12","481","","","","","","","","","<img src= ""rock_img/I_Pumice_03.jpg"" style=""width:8cm; height:6.64cm;""><p>What type of rock is this?</p>","6","class_response","1","test","47","Peridotite","Pumice","03","false","7","8","","","","","","","","","","","","","","","",""
"","","","","","","","","","","","html-keyboard-response","233","2.0.0","898828","6699b7e8a3fa22647d9ea5c3","3","12","null","","","","","","","","","<p style='font-size: 30px;'><strong>Okay</strong></p>","null","neutral_feedback","1","test","47","","","","","","","","","","","","","","","","","","","","","",""
"","","","","","","","","","","","html-button-response","234","2.0.0","899342","6699b7e8a3fa22647d9ea5c3","3","12","510","","","","","","","","","<img src= ""rock_img/I_Andesite_16.jpg"" style=""width:8cm; height:6.010000000000001cm;""><p>What type of rock is this?</p>","5","class_response","1","test","48","Pegmatite","Andesite","16","false","6","1","","","","","","","","","","","","","","","",""
"","","","","","","","","","","","html-keyboard-response","235","2.0.0","899844","6699b7e8a3fa22647d9ea5c3","3","12","null","","","","","","","","","<p style='font-size: 30px;'><strong>Okay</strong></p>","null","neutral_feedback","1","test","48","","","","","","","","","","","","","","","","","","","","","",""
"","","","","","","","","","","","html-button-response","236","2.0.0","910542","6699b7e8a3fa22647d9ea5c3","3","12","","","","","","","","","","","","cycle_feedback","","","","","","","","","","","","","","","","","","","","","","477.40000000037253","10201.799999998882","",""
"","","","","","","","","","","","html-button-response","238","2.0.0","914151","6699b7e8a3fa22647d9ea5c3","3","12","3605","","","","","","","","","","0","start_train","","","","","","","","","","","","","","","","","","","","","","","","",""
"","","","","","","","","","","","html-button-response","240","2.0.0","915159","6699b7e8a3fa22647d9ea5c3","3","12","1002","","","","","","","","","<img src= ""rock_img/I_Obsidian_12.jpg"" style=""width:8cm; height:6.53cm;""><p>What type of rock is this?</p>","1","class_response","2","train","1","Basalt","Obsidian","12","false","2","5","","","","","","","","","","","","","","","",""
"","","","","","","","","","","","html-button-response","241","2.0.0","915991","6699b7e8a3fa22647d9ea5c3","3","12","829","","","","","","","","","<img src= rock_img/I_Obsidian_12.jpg style=""width:8cm; height:6.53cm;""><p style='font-size: 30px; color: red;'><strong>Incorrect!</strong></p><p style='font-size: 30px;'><strong>This rock is obsidian</strong></p>","0","corr_feedback","2","train","1","","","","","","","","","","","","","","","","","","","","","",""
"","","","","","","","","","","","html-button-response","242","2.0.0","916567","6699b7e8a3fa22647d9ea5c3","3","12","572","","","","","","","","","<img src= ""rock_img/I_Andesite_09.jpg"" style=""width:8cm; height:6cm;""><p>What type of rock is this?</p>","6","class_response","2","train","2","Peridotite","Andesite","09","false","7","1","","","","","","","","","","","","","","","",""
"","","","","","","","","","","","html-button-response","243","2.0.0","917203","6699b7e8a3fa22647d9ea5c3","3","12","631","","","","","","","","","<img src= rock_img/I_Andesite_09.jpg style=""width:8cm; height:6cm;""><p style='font-size: 30px; color: red;'><strong>Incorrect!</strong></p><p style='font-size: 30px;'><strong>This rock is andesite</strong></p>","0","corr_feedback","2","train","2","","","","","","","","","","","","","","","","","","","","","",""
"","","","","","","","","","","","html-button-response","244","2.0.0","917770","6699b7e8a3fa22647d9ea5c3","3","12","562","","","","","","","","","<img src= ""rock_img/I_Pumice_10.jpg"" style=""width:8cm; height:7.609999999999999cm;""><p>What type of rock is this?</p>","5","class_response","2","train","3","Pegmatite","Pumice","10","false","6","8","","","","","","","","","","","","","","","",""
"","","","","","","","","","","","html-button-response","245","2.0.0","918455","6699b7e8a3fa22647d9ea5c3","3","12","682","","","","","","","","","<img src= rock_img/I_Pumice_10.jpg style=""width:8cm; height:7.609999999999999cm;""><p style='font-size: 30px; color: red;'><strong>Incorrect!</strong></p><p style='font-size: 30px;'><strong>This rock is pumice</strong></p>","0","corr_feedback","2","train","3","","","","","","","","","","","","","","","","","","","","","",""
"","","","","","","","","","","","html-button-response","246","2.0.0","919492","6699b7e8a3fa22647d9ea5c3","3","12","1034","","","","","","","","","<img src= ""rock_img/I_Peridotite_15.jpg"" style=""width:8cm; height:6cm;""><p>What type of rock is this?</p>","5","class_response","2","train","4","Pegmatite","Peridotite","15","false","6","7","","","","","","","","","","","","","","","",""
"","","","","","","","","","","","html-button-response","247","2.0.0","920108","6699b7e8a3fa22647d9ea5c3","3","12","613","","","","","","","","","<img src= rock_img/I_Peridotite_15.jpg style=""width:8cm; height:6cm;""><p style='font-size: 30px; color: red;'><strong>Incorrect!</strong></p><p style='font-size: 30px;'><strong>This rock is peridotite</strong></p>","0","corr_feedback","2","train","4","","","","","","","","","","","","","","","","","","","","","",""
"","","","","","","","","","","","html-button-response","248","2.0.0","921203","6699b7e8a3fa22647d9ea5c3","3","12","1091","","","","","","","","","<img src= ""rock_img/I_Basalt_16.jpg"" style=""width:8cm; height:7.659999999999999cm;""><p>What type of rock is this?</p>","5","class_response","2","train","5","Pegmatite","Basalt","16","false","6","2","","","","","","","","","","","","","","","",""
"","","","","","","","","","","","html-button-response","249","2.0.0","921755","6699b7e8a3fa22647d9ea5c3","3","12","549","","","","","","","","","<img src= rock_img/I_Basalt_16.jpg style=""width:8cm; height:7.659999999999999cm;""><p style='font-size: 30px; color: red;'><strong>Incorrect!</strong></p><p style='font-size: 30px;'><strong>This rock is basalt</strong></p>","0","corr_feedback","2","train","5","","","","","","","","","","","","","","","","","","","","","",""
"","","","","","","","","","","","html-button-response","250","2.0.0","922651","6699b7e8a3fa22647d9ea5c3","3","12","891","","","","","","","","","<img src= ""rock_img/I_Gabbro_14.jpg"" style=""width:8cm; height:8.48cm;""><p>What type of rock is this?</p>","5","class_response","2","train","6","Pegmatite","Gabbro","14","false","6","4","","","","","","","","","","","","","","","",""
"","","","","","","","","","","","html-button-response","251","2.0.0","923219","6699b7e8a3fa22647d9ea5c3","3","12","563","","","","","","","","","<img src= rock_img/I_Gabbro_14.jpg style=""width:8cm; height:8.48cm;""><p style='font-size: 30px; color: red;'><strong>Incorrect!</strong></p><p style='font-size: 30px;'><strong>This rock is gabbro</strong></p>","0","corr_feedback","2","train","6","","","","","","","","","","","","","","","","","","","","","",""
"","","","","","","","","","","","html-button-response","252","2.0.0","923893","6699b7e8a3fa22647d9ea5c3","3","12","670","","","","","","","","","<img src= ""rock_img/I_Diorite_13.jpg"" style=""width:8cm; height:6.29cm;""><p>What type of rock is this?</p>","6","class_response","2","train","7","Peridotite","Diorite","13","false","7","3","","","","","","","","","","","","","","","",""
"","","","","","","","","","","","html-button-response","253","2.0.0","924490","6699b7e8a3fa22647d9ea5c3","3","12","592","","","","","","","","","<img src= rock_img/I_Diorite_13.jpg style=""width:8cm; height:6.29cm;""><p style='font-size: 30px; color: red;'><strong>Incorrect!</strong></p><p style='font-size: 30px;'><strong>This rock is diorite</strong></p>","0","corr_feedback","2","train","7","","","","","","","","","","","","","","","","","","","","","",""
"","","","","","","","","","","","html-button-response","254","2.0.0","925185","6699b7e8a3fa22647d9ea5c3","3","12","687","","","","","","","","","<img src= ""rock_img/I_Obsidian_02.jpg"" style=""width:8cm; height:7.51cm;""><p>What type of rock is this?</p>","6","class_response","2","train","8","Peridotite","Obsidian","02","false","7","5","","","","","","","","","","","","","","","",""
"","","","","","","","","","","","html-button-response","255","2.0.0","925976","6699b7e8a3fa22647d9ea5c3","3","12","788","","","","","","","","","<img src= rock_img/I_Obsidian_02.jpg style=""width:8cm; height:7.51cm;""><p style='font-size: 30px; color: red;'><strong>Incorrect!</strong></p><p style='font-size: 30px;'><strong>This rock is obsidian</strong></p>","0","corr_feedback","2","train","8","","","","","","","","","","","","","","","","","","","","","",""
"","","","","","","","","","","","html-button-response","256","2.0.0","926710","6699b7e8a3fa22647d9ea5c3","3","12","731","","","","","","","","","<img src= ""rock_img/I_Pegmatite_11.jpg"" style=""width:8cm; height:8.14cm;""><p>What type of rock is this?</p>","2","class_response","2","train","9","Diorite","Pegmatite","11","false","3","6","","","","","","","","","","","","","","","",""
"","","","","","","","","","","","html-button-response","257","2.0.0","927385","6699b7e8a3fa22647d9ea5c3","3","12","670","","","","","","","","","<img src= rock_img/I_Pegmatite_11.jpg style=""width:8cm; height:8.14cm;""><p style='font-size: 30px; color: red;'><strong>Incorrect!</strong></p><p style='font-size: 30px;'><strong>This rock is pegmatite</strong></p>","0","corr_feedback","2","train","9","","","","","","","","","","","","","","","","","","","","","",""
"","","","","","","","","","","","html-button-response","258","2.0.0","928316","6699b7e8a3fa22647d9ea5c3","3","12","925","","","","","","","","","<img src= ""rock_img/I_Peridotite_04.jpg"" style=""width:8cm; height:6.680000000000001cm;""><p>What type of rock is this?</p>","7","class_response","2","train","10","Pumice","Peridotite","04","false","8","7","","","","","","","","","","","","","","","",""
"","","","","","","","","","","","html-button-response","259","2.0.0","928989","6699b7e8a3fa22647d9ea5c3","3","12","670","","","","","","","","","<img src= rock_img/I_Peridotite_04.jpg style=""width:8cm; height:6.680000000000001cm;""><p style='font-size: 30px; color: red;'><strong>Incorrect!</strong></p><p style='font-size: 30px;'><strong>This rock is peridotite</strong></p>","0","corr_feedback","2","train","10","","","","","","","","","","","","","","","","","","","","","",""
"","","","","","","","","","","","html-button-response","260","2.0.0","930281","6699b7e8a3fa22647d9ea5c3","3","12","1288","","","","","","","","","<img src= ""rock_img/I_Basalt_12.jpg"" style=""width:8cm; height:6.010000000000001cm;""><p>What type of rock is this?</p>","2","class_response","2","train","11","Diorite","Basalt","12","false","3","2","","","","","","","","","","","","","","","",""
"","","","","","","","","","","","html-button-response","261","2.0.0","930936","6699b7e8a3fa22647d9ea5c3","3","12","651","","","","","","","","","<img src= rock_img/I_Basalt_12.jpg style=""width:8cm; height:6.010000000000001cm;""><p style='font-size: 30px; color: red;'><strong>Incorrect!</strong></p><p style='font-size: 30px;'><strong>This rock is basalt</strong></p>","0","corr_feedback","2","train","11","","","","","","","","","","","","","","","","","","","","","",""
"","","","","","","","","","","","html-button-response","262","2.0.0","931719","6699b7e8a3fa22647d9ea5c3","3","12","778","","","","","","","","","<img src= ""rock_img/I_Pegmatite_13.jpg"" style=""width:8cm; height:4.95cm;""><p>What type of rock is this?</p>","5","class_response","2","train","12","Pegmatite","Pegmatite","13","true","6","6","","","","","","","","","","","","","","","",""
"","","","","","","","","","","","html-button-response","263","2.0.0","932423","6699b7e8a3fa22647d9ea5c3","3","12","700","","","","","","","","","<img src= rock_img/I_Pegmatite_13.jpg style=""width:8cm; height:4.95cm;""><p style='font-size: 30px; color: green;'><strong>Correct!</strong></p><p style='font-size: 30px;'><strong>This rock is pegmatite</strong></p>","0","corr_feedback","2","train","12","","","","","","","","","","","","","","","","","","","","","",""
"","","","","","","","","","","","html-button-response","265","2.0.0","933528","6699b7e8a3fa22647d9ea5c3","3","12","1101","","","","","","","","","","0","start_train","","","","","","","","","","","","","","","","","","","","","","","","",""
"","","","","","","","","","","","html-button-response","266","2.0.0","935260","6699b7e8a3fa22647d9ea5c3","3","12","","","","","","","","","","","","cat_selection","2","train","1","","","","","","","6","8","1728","Pegmatite","Pumice","[0.12791239704558763,0.13074212663729914,0.12791239704558763,0.1440234186115756,0.13596790782858162,0.08284273993147578,0.11463110507131115,0.13596790782858162]","[0.025130863873099835,0.024149318022503093,0.1550116430276056,0.0921028888561968,0.028108402403122356,null,0.086849699331774,0.5886471844856983]","","","","","","","","",""
"","","","","","","","","","","","paired-cat-display","267","1.0.0","959943","6699b7e8a3fa22647d9ea5c3","3","12","","","","","","","","","","","","paired_cat_display","2","train","1","","","","","","","","","6115.5999999996275","","","","","","Coral
ocean
fish
","18526.199999999255","","Pretty
calico
Pattern","","","",""
"","","","","","","","","","","","html-button-response","268","2.0.0","961903","6699b7e8a3fa22647d9ea5c3","3","12","","","","","","","","","","","","cat_selection","2","train","2","","","","","","","3","7","1953.3999999985099","Diorite","Peridotite","[0.12791239704558763,0.13074212663729914,0.12791239704558763,0.1440234186115756,0.13596790782858162,0.08284273993147578,0.11463110507131115,0.13596790782858162]","[0.02458067914835186,0.17796109387354486,null,0.031829804215775095,0.1902795668521615,0.11628127014851058,0.3553050597280806,0.10376252603357565]","","","","","","","","",""
"","","","","","","","","","","","paired-cat-display","269","1.0.0","993206","6699b7e8a3fa22647d9ea5c3","3","12","","","","","","","","","","","","paired_cat_display","2","train","2","","","","","","","","","5873.800000000745","","","","","","","25405.299999998882","","","","","pretty
weird 
rough
","pretty
weird
rough"
"","","","","","","","","","","","html-button-response","270","2.0.0","994575","6699b7e8a3fa22647d9ea5c3","3","12","","","","","","","","","","","","cat_selection","2","train","3","","","","","","","7","8","1363.800000000745","Peridotite","Pumice","[0.12791239704558763,0.13074212663729914,0.12791239704558763,0.1440234186115756,0.13596790782858162,0.08284273993147578,0.11463110507131115,0.13596790782858162]","[0.10516154003814718,0.20540342580226414,0.22485478418965407,0.028170897254520058,0.1312974368963749,0.1235012045723225,null,0.18161071124671718]","","","","","","","","",""
