"width","height","webaudio","browser","browser_version","mobile","os","fullscreen","vsync_rate","webcam","microphone","trial_type","trial_index","plugin_version","time_elapsed","subjID","condition","stimID","rt","url","success","value","timeout","failed_images","failed_audio","failed_video","view_history","stimulus","response","trialType","cycle","phase","trial","resp","cat","token","corr","resp_num","cat_num","time_fb1","time_fb2"
"1232","594","true","edge-chromium","131.0.0","false","Windows 10","true","59.89","true","true","browser-check","0","2.0.0","1029","64e8a63d30b3b5fbf590c6a7","2","13","","","","","","","","","","","","","","","","","","","","","","",""
"","","","","","","","","","","","external-html","1","2.0.0","23689","64e8a63d30b3b5fbf590c6a7","2","13","22550","consent_form.html","","","","","","","","","","","","","","","","","","","","",""
"","","","","","","","","","","","fullscreen","2","2.0.0","26871","64e8a63d30b3b5fbf590c6a7","2","13","2176","","true","","","","","","","","","","","","","","","","","","","",""
"","","","","","","","","","","","call-function","3","2.0.0","26876","64e8a63d30b3b5fbf590c6a7","2","13","","","","{}","","","","","","","","","","","","","","","","","","",""
"","","","","","","","","","","","preload","4","2.0.0","32812","64e8a63d30b3b5fbf590c6a7","2","13","","","true","","false","[]","[]","[]","","","","","","","","","","","","","","",""
"","","","","","","","","","","","instructions","5","2.0.0","114907","64e8a63d30b3b5fbf590c6a7","2","13","82093","","","","","","","","[{""page_index"":0,""viewing_time"":27763},{""page_index"":1,""viewing_time"":45819},{""page_index"":2,""viewing_time"":8511}]","","","","","","","","","","","","","",""
"","","","","","","","","","","","html-button-response","6","2.0.0","119053","64e8a63d30b3b5fbf590c6a7","2","13","4143","","","","","","","","","","0","start_test","","","","","","","","","","",""
"","","","","","","","","","","","html-button-response","7","2.0.0","141507","64e8a63d30b3b5fbf590c6a7","2","13","22450","","","","","","","","","<img src= ""rock_img/I_Gabbro_12.jpg"" style=""width:8cm; height:7.800000000000001cm;""><p>What type of rock is this?</p>","3","class_response","0","test","1","Gabbro","Gabbro","12","true","4","4","",""
"","","","","","","","","","","","html-keyboard-response","8","2.0.0","142016","64e8a63d30b3b5fbf590c6a7","2","13","null","","","","","","","","","<p style='font-size: 30px;'><strong>Okay</strong></p>","null","neutral_feedback","0","test","1","","","","","","","",""
"","","","","","","","","","","","html-button-response","9","2.0.0","149813","64e8a63d30b3b5fbf590c6a7","2","13","7794","","","","","","","","","<img src= ""rock_img/I_Obsidian_02.jpg"" style=""width:8cm; height:7.51cm;""><p>What type of rock is this?</p>","4","class_response","0","test","2","Obsidian","Obsidian","02","true","5","5","",""
"","","","","","","","","","","","html-keyboard-response","10","2.0.0","150316","64e8a63d30b3b5fbf590c6a7","2","13","null","","","","","","","","","<p style='font-size: 30px;'><strong>Okay</strong></p>","null","neutral_feedback","0","test","2","","","","","","","",""
"","","","","","","","","","","","html-button-response","11","2.0.0","158622","64e8a63d30b3b5fbf590c6a7","2","13","8304","","","","","","","","","<img src= ""rock_img/I_Obsidian_07.jpg"" style=""width:8cm; height:4.76cm;""><p>What type of rock is this?</p>","4","class_response","0","test","3","Obsidian","Obsidian","07","true","5","5","",""
"","","","","","","","","","","","html-keyboard-response","12","2.0.0","159136","64e8a63d30b3b5fbf590c6a7","2","13","null","","","","","","","","","<p style='font-size: 30px;'><strong>Okay</strong></p>","null","neutral_feedback","0","test","3","","","","","","","",""
"","","","","","","","","","","","html-button-response","13","2.0.0","173769","64e8a63d30b3b5fbf590c6a7","2","13","14629","","","","","","","","","<img src= ""rock_img/I_Pegmatite_05.jpg"" style=""width:8cm; height:7.300000000000001cm;""><p>What type of rock is this?</p>","0","class_response","0","test","4","Andesite","Pegmatite","05","false","1","6","",""
"","","","","","","","","","","","html-keyboard-response","14","2.0.0","174272","64e8a63d30b3b5fbf590c6a7","2","13","null","","","","","","","","","<p style='font-size: 30px;'><strong>Okay</strong></p>","null","neutral_feedback","0","test","4","","","","","","","",""
"","","","","","","","","","","","html-button-response","15","2.0.0","197914","64e8a63d30b3b5fbf590c6a7","2","13","23640","","","","","","","","","<img src= ""rock_img/I_Diorite_16.jpg"" style=""width:8cm; height:6.74cm;""><p>What type of rock is this?</p>","1","class_response","0","test","5","Basalt","Diorite","16","false","2","3","",""
"","","","","","","","","","","","html-keyboard-response","16","2.0.0","198416","64e8a63d30b3b5fbf590c6a7","2","13","null","","","","","","","","","<p style='font-size: 30px;'><strong>Okay</strong></p>","null","neutral_feedback","0","test","5","","","","","","","",""
"","","","","","","","","","","","html-button-response","17","2.0.0","208274","64e8a63d30b3b5fbf590c6a7","2","13","9853","","","","","","","","","<img src= ""rock_img/I_Pegmatite_09.jpg"" style=""width:8cm; height:4.03cm;""><p>What type of rock is this?</p>","0","class_response","0","test","6","Andesite","Pegmatite","09","false","1","6","",""
"","","","","","","","","","","","html-keyboard-response","18","2.0.0","208790","64e8a63d30b3b5fbf590c6a7","2","13","null","","","","","","","","","<p style='font-size: 30px;'><strong>Okay</strong></p>","null","neutral_feedback","0","test","6","","","","","","","",""
"","","","","","","","","","","","html-button-response","19","2.0.0","225639","64e8a63d30b3b5fbf590c6a7","2","13","16845","","","","","","","","","<img src= ""rock_img/I_Pumice_05.jpg"" style=""width:8cm; height:7.25cm;""><p>What type of rock is this?</p>","7","class_response","0","test","7","Pumice","Pumice","05","true","8","8","",""
"","","","","","","","","","","","html-keyboard-response","20","2.0.0","226150","64e8a63d30b3b5fbf590c6a7","2","13","null","","","","","","","","","<p style='font-size: 30px;'><strong>Okay</strong></p>","null","neutral_feedback","0","test","7","","","","","","","",""
"","","","","","","","","","","","html-button-response","21","2.0.0","234756","64e8a63d30b3b5fbf590c6a7","2","13","8603","","","","","","","","","<img src= ""rock_img/I_Diorite_11.jpg"" style=""width:8cm; height:7.11cm;""><p>What type of rock is this?</p>","2","class_response","0","test","8","Diorite","Diorite","11","true","3","3","",""
"","","","","","","","","","","","html-keyboard-response","22","2.0.0","235264","64e8a63d30b3b5fbf590c6a7","2","13","null","","","","","","","","","<p style='font-size: 30px;'><strong>Okay</strong></p>","null","neutral_feedback","0","test","8","","","","","","","",""
"","","","","","","","","","","","html-button-response","23","2.0.0","245178","64e8a63d30b3b5fbf590c6a7","2","13","9911","","","","","","","","","<img src= ""rock_img/I_Pegmatite_16.jpg"" style=""width:8cm; height:5.8cm;""><p>What type of rock is this?</p>","5","class_response","0","test","9","Pegmatite","Pegmatite","16","true","6","6","",""
"","","","","","","","","","","","html-keyboard-response","24","2.0.0","245687","64e8a63d30b3b5fbf590c6a7","2","13","null","","","","","","","","","<p style='font-size: 30px;'><strong>Okay</strong></p>","null","neutral_feedback","0","test","9","","","","","","","",""
"","","","","","","","","","","","html-button-response","25","2.0.0","263941","64e8a63d30b3b5fbf590c6a7","2","13","18252","","","","","","","","","<img src= ""rock_img/I_Peridotite_16.jpg"" style=""width:8cm; height:6.989999999999999cm;""><p>What type of rock is this?</p>","6","class_response","0","test","10","Peridotite","Peridotite","16","true","7","7","",""
"","","","","","","","","","","","html-keyboard-response","26","2.0.0","264447","64e8a63d30b3b5fbf590c6a7","2","13","null","","","","","","","","","<p style='font-size: 30px;'><strong>Okay</strong></p>","null","neutral_feedback","0","test","10","","","","","","","",""
"","","","","","","","","","","","html-button-response","27","2.0.0","282167","64e8a63d30b3b5fbf590c6a7","2","13","17719","","","","","","","","","<img src= ""rock_img/I_Peridotite_10.jpg"" style=""width:8cm; height:5.390000000000001cm;""><p>What type of rock is this?</p>","4","class_response","0","test","11","Obsidian","Peridotite","10","false","5","7","",""
"","","","","","","","","","","","html-keyboard-response","28","2.0.0","282678","64e8a63d30b3b5fbf590c6a7","2","13","null","","","","","","","","","<p style='font-size: 30px;'><strong>Okay</strong></p>","null","neutral_feedback","0","test","11","","","","","","","",""
"","","","","","","","","","","","html-button-response","29","2.0.0","311533","64e8a63d30b3b5fbf590c6a7","2","13","28851","","","","","","","","","<img src= ""rock_img/I_Basalt_08.jpg"" style=""width:8cm; height:10.44cm;""><p>What type of rock is this?</p>","6","class_response","0","test","12","Peridotite","Basalt","08","false","7","2","",""
"","","","","","","","","","","","html-keyboard-response","30","2.0.0","312036","64e8a63d30b3b5fbf590c6a7","2","13","null","","","","","","","","","<p style='font-size: 30px;'><strong>Okay</strong></p>","null","neutral_feedback","0","test","12","","","","","","","",""
"","","","","","","","","","","","html-button-response","31","2.0.0","327604","64e8a63d30b3b5fbf590c6a7","2","13","15565","","","","","","","","","<img src= ""rock_img/I_Basalt_06.jpg"" style=""width:8cm; height:7.06cm;""><p>What type of rock is this?</p>","0","class_response","0","test","13","Andesite","Basalt","06","false","1","2","",""
"","","","","","","","","","","","html-keyboard-response","32","2.0.0","328106","64e8a63d30b3b5fbf590c6a7","2","13","null","","","","","","","","","<p style='font-size: 30px;'><strong>Okay</strong></p>","null","neutral_feedback","0","test","13","","","","","","","",""
"","","","","","","","","","","","html-button-response","33","2.0.0","369515","64e8a63d30b3b5fbf590c6a7","2","13","41406","","","","","","","","","<img src= ""rock_img/I_Basalt_10.jpg"" style=""width:8cm; height:5.85cm;""><p>What type of rock is this?</p>","3","class_response","0","test","14","Gabbro","Basalt","10","false","4","2","",""
"","","","","","","","","","","","html-keyboard-response","34","2.0.0","370029","64e8a63d30b3b5fbf590c6a7","2","13","null","","","","","","","","","<p style='font-size: 30px;'><strong>Okay</strong></p>","null","neutral_feedback","0","test","14","","","","","","","",""
"","","","","","","","","","","","html-button-response","35","2.0.0","408595","64e8a63d30b3b5fbf590c6a7","2","13","38564","","","","","","","","","<img src= ""rock_img/I_Gabbro_14.jpg"" style=""width:8cm; height:8.48cm;""><p>What type of rock is this?</p>","4","class_response","0","test","15","Obsidian","Gabbro","14","false","5","4","",""
"","","","","","","","","","","","html-keyboard-response","36","2.0.0","409110","64e8a63d30b3b5fbf590c6a7","2","13","null","","","","","","","","","<p style='font-size: 30px;'><strong>Okay</strong></p>","null","neutral_feedback","0","test","15","","","","","","","",""
"","","","","","","","","","","","html-button-response","37","2.0.0","457749","64e8a63d30b3b5fbf590c6a7","2","13","48637","","","","","","","","","<img src= ""rock_img/I_Pegmatite_08.jpg"" style=""width:8cm; height:7.68cm;""><p>What type of rock is this?</p>","2","class_response","0","test","16","Diorite","Pegmatite","08","false","3","6","",""
"","","","","","","","","","","","html-keyboard-response","38","2.0.0","458262","64e8a63d30b3b5fbf590c6a7","2","13","null","","","","","","","","","<p style='font-size: 30px;'><strong>Okay</strong></p>","null","neutral_feedback","0","test","16","","","","","","","",""
"","","","","","","","","","","","html-button-response","39","2.0.0","488928","64e8a63d30b3b5fbf590c6a7","2","13","30664","","","","","","","","","<img src= ""rock_img/I_Obsidian_09.jpg"" style=""width:8cm; height:5cm;""><p>What type of rock is this?</p>","1","class_response","0","test","17","Basalt","Obsidian","09","false","2","5","",""
"","","","","","","","","","","","html-keyboard-response","40","2.0.0","489438","64e8a63d30b3b5fbf590c6a7","2","13","null","","","","","","","","","<p style='font-size: 30px;'><strong>Okay</strong></p>","null","neutral_feedback","0","test","17","","","","","","","",""
"","","","","","","","","","","","html-button-response","41","2.0.0","515494","64e8a63d30b3b5fbf590c6a7","2","13","26054","","","","","","","","","<img src= ""rock_img/I_Peridotite_14.jpg"" style=""width:8cm; height:5.3cm;""><p>What type of rock is this?</p>","3","class_response","0","test","18","Gabbro","Peridotite","14","false","4","7","",""
"","","","","","","","","","","","html-keyboard-response","42","2.0.0","516005","64e8a63d30b3b5fbf590c6a7","2","13","null","","","","","","","","","<p style='font-size: 30px;'><strong>Okay</strong></p>","null","neutral_feedback","0","test","18","","","","","","","",""
"","","","","","","","","","","","html-button-response","43","2.0.0","558659","64e8a63d30b3b5fbf590c6a7","2","13","42652","","","","","","","","","<img src= ""rock_img/I_Basalt_09.jpg"" style=""width:8cm; height:6.2cm;""><p>What type of rock is this?</p>","4","class_response","0","test","19","Obsidian","Basalt","09","false","5","2","",""
"","","","","","","","","","","","html-keyboard-response","44","2.0.0","559165","64e8a63d30b3b5fbf590c6a7","2","13","null","","","","","","","","","<p style='font-size: 30px;'><strong>Okay</strong></p>","null","neutral_feedback","0","test","19","","","","","","","",""
"","","","","","","","","","","","html-button-response","45","2.0.0","589404","64e8a63d30b3b5fbf590c6a7","2","13","30237","","","","","","","","","<img src= ""rock_img/I_Gabbro_10.jpg"" style=""width:8cm; height:5.680000000000001cm;""><p>What type of rock is this?</p>","1","class_response","0","test","20","Basalt","Gabbro","10","false","2","4","",""
"","","","","","","","","","","","html-keyboard-response","46","2.0.0","589909","64e8a63d30b3b5fbf590c6a7","2","13","null","","","","","","","","","<p style='font-size: 30px;'><strong>Okay</strong></p>","null","neutral_feedback","0","test","20","","","","","","","",""
"","","","","","","","","","","","html-button-response","47","2.0.0","686857","64e8a63d30b3b5fbf590c6a7","2","13","96946","","","","","","","","","<img src= ""rock_img/I_Basalt_02.jpg"" style=""width:8cm; height:6.45cm;""><p>What type of rock is this?</p>","1","class_response","0","test","21","Basalt","Basalt","02","true","2","2","",""
"","","","","","","","","","","","html-keyboard-response","48","2.0.0","687373","64e8a63d30b3b5fbf590c6a7","2","13","null","","","","","","","","","<p style='font-size: 30px;'><strong>Okay</strong></p>","null","neutral_feedback","0","test","21","","","","","","","",""
"","","","","","","","","","","","html-button-response","49","2.0.0","698102","64e8a63d30b3b5fbf590c6a7","2","13","10727","","","","","","","","","<img src= ""rock_img/I_Peridotite_15.jpg"" style=""width:8cm; height:6cm;""><p>What type of rock is this?</p>","6","class_response","0","test","22","Peridotite","Peridotite","15","true","7","7","",""
"","","","","","","","","","","","html-keyboard-response","50","2.0.0","698608","64e8a63d30b3b5fbf590c6a7","2","13","null","","","","","","","","","<p style='font-size: 30px;'><strong>Okay</strong></p>","null","neutral_feedback","0","test","22","","","","","","","",""
"","","","","","","","","","","","html-button-response","51","2.0.0","708050","64e8a63d30b3b5fbf590c6a7","2","13","9439","","","","","","","","","<img src= ""rock_img/I_Pumice_04.jpg"" style=""width:8cm; height:6.819999999999999cm;""><p>What type of rock is this?</p>","7","class_response","0","test","23","Pumice","Pumice","04","true","8","8","",""
"","","","","","","","","","","","html-keyboard-response","52","2.0.0","708565","64e8a63d30b3b5fbf590c6a7","2","13","null","","","","","","","","","<p style='font-size: 30px;'><strong>Okay</strong></p>","null","neutral_feedback","0","test","23","","","","","","","",""
"","","","","","","","","","","","html-button-response","53","2.0.0","748464","64e8a63d30b3b5fbf590c6a7","2","13","39897","","","","","","","","","<img src= ""rock_img/I_Peridotite_05.jpg"" style=""width:8cm; height:7.1499999999999995cm;""><p>What type of rock is this?</p>","2","class_response","0","test","24","Diorite","Peridotite","05","false","3","7","",""
"","","","","","","","","","","","html-keyboard-response","54","2.0.0","748971","64e8a63d30b3b5fbf590c6a7","2","13","null","","","","","","","","","<p style='font-size: 30px;'><strong>Okay</strong></p>","null","neutral_feedback","0","test","24","","","","","","","",""
"","","","","","","","","","","","html-button-response","55","2.0.0","763162","64e8a63d30b3b5fbf590c6a7","2","13","14188","","","","","","","","","<img src= ""rock_img/I_Pumice_09.jpg"" style=""width:8cm; height:6.44cm;""><p>What type of rock is this?</p>","7","class_response","0","test","25","Pumice","Pumice","09","true","8","8","",""
"","","","","","","","","","","","html-keyboard-response","56","2.0.0","763671","64e8a63d30b3b5fbf590c6a7","2","13","null","","","","","","","","","<p style='font-size: 30px;'><strong>Okay</strong></p>","null","neutral_feedback","0","test","25","","","","","","","",""
"","","","","","","","","","","","html-button-response","57","2.0.0","803365","64e8a63d30b3b5fbf590c6a7","2","13","39692","","","","","","","","","<img src= ""rock_img/I_Diorite_06.jpg"" style=""width:8cm; height:6.03cm;""><p>What type of rock is this?</p>","2","class_response","0","test","26","Diorite","Diorite","06","true","3","3","",""
"","","","","","","","","","","","html-keyboard-response","58","2.0.0","803881","64e8a63d30b3b5fbf590c6a7","2","13","null","","","","","","","","","<p style='font-size: 30px;'><strong>Okay</strong></p>","null","neutral_feedback","0","test","26","","","","","","","",""
"","","","","","","","","","","","html-button-response","59","2.0.0","831135","64e8a63d30b3b5fbf590c6a7","2","13","27252","","","","","","","","","<img src= ""rock_img/I_Andesite_11.jpg"" style=""width:8cm; height:4.92cm;""><p>What type of rock is this?</p>","1","class_response","0","test","27","Basalt","Andesite","11","false","2","1","",""
"","","","","","","","","","","","html-keyboard-response","60","2.0.0","831637","64e8a63d30b3b5fbf590c6a7","2","13","null","","","","","","","","","<p style='font-size: 30px;'><strong>Okay</strong></p>","null","neutral_feedback","0","test","27","","","","","","","",""
"","","","","","","","","","","","html-button-response","61","2.0.0","861961","64e8a63d30b3b5fbf590c6a7","2","13","30322","","","","","","","","","<img src= ""rock_img/I_Obsidian_10.jpg"" style=""width:8cm; height:6.260000000000001cm;""><p>What type of rock is this?</p>","4","class_response","0","test","28","Obsidian","Obsidian","10","true","5","5","",""
"","","","","","","","","","","","html-keyboard-response","62","2.0.0","862464","64e8a63d30b3b5fbf590c6a7","2","13","null","","","","","","","","","<p style='font-size: 30px;'><strong>Okay</strong></p>","null","neutral_feedback","0","test","28","","","","","","","",""
"","","","","","","","","","","","html-button-response","63","2.0.0","925137","64e8a63d30b3b5fbf590c6a7","2","13","62670","","","","","","","","","<img src= ""rock_img/I_Pegmatite_03.jpg"" style=""width:8cm; height:5.239999999999999cm;""><p>What type of rock is this?</p>","0","class_response","0","test","29","Andesite","Pegmatite","03","false","1","6","",""
"","","","","","","","","","","","html-keyboard-response","64","2.0.0","925647","64e8a63d30b3b5fbf590c6a7","2","13","null","","","","","","","","","<p style='font-size: 30px;'><strong>Okay</strong></p>","null","neutral_feedback","0","test","29","","","","","","","",""
"","","","","","","","","","","","html-button-response","65","2.0.0","941113","64e8a63d30b3b5fbf590c6a7","2","13","15465","","","","","","","","","<img src= ""rock_img/I_Pegmatite_13.jpg"" style=""width:8cm; height:4.95cm;""><p>What type of rock is this?</p>","5","class_response","0","test","30","Pegmatite","Pegmatite","13","true","6","6","",""
"","","","","","","","","","","","html-keyboard-response","66","2.0.0","941630","64e8a63d30b3b5fbf590c6a7","2","13","null","","","","","","","","","<p style='font-size: 30px;'><strong>Okay</strong></p>","null","neutral_feedback","0","test","30","","","","","","","",""
"","","","","","","","","","","","html-button-response","67","2.0.0","949467","64e8a63d30b3b5fbf590c6a7","2","13","7835","","","","","","","","","<img src= ""rock_img/I_Diorite_12.jpg"" style=""width:8cm; height:4.88cm;""><p>What type of rock is this?</p>","2","class_response","0","test","31","Diorite","Diorite","12","true","3","3","",""
"","","","","","","","","","","","html-keyboard-response","68","2.0.0","949971","64e8a63d30b3b5fbf590c6a7","2","13","null","","","","","","","","","<p style='font-size: 30px;'><strong>Okay</strong></p>","null","neutral_feedback","0","test","31","","","","","","","",""
"","","","","","","","","","","","html-button-response","69","2.0.0","963702","64e8a63d30b3b5fbf590c6a7","2","13","13729","","","","","","","","","<img src= ""rock_img/I_Andesite_03.jpg"" style=""width:8cm; height:5.73cm;""><p>What type of rock is this?</p>","3","class_response","0","test","32","Gabbro","Andesite","03","false","4","1","",""
"","","","","","","","","","","","html-keyboard-response","70","2.0.0","964214","64e8a63d30b3b5fbf590c6a7","2","13","null","","","","","","","","","<p style='font-size: 30px;'><strong>Okay</strong></p>","null","neutral_feedback","0","test","32","","","","","","","",""
"","","","","","","","","","","","html-button-response","71","2.0.0","972371","64e8a63d30b3b5fbf590c6a7","2","13","8155","","","","","","","","","<img src= ""rock_img/I_Pumice_15.jpg"" style=""width:8cm; height:7.86cm;""><p>What type of rock is this?</p>","7","class_response","0","test","33","Pumice","Pumice","15","true","8","8","",""
"","","","","","","","","","","","html-keyboard-response","72","2.0.0","972874","64e8a63d30b3b5fbf590c6a7","2","13","null","","","","","","","","","<p style='font-size: 30px;'><strong>Okay</strong></p>","null","neutral_feedback","0","test","33","","","","","","","",""
"","","","","","","","","","","","html-button-response","73","2.0.0","1030625","64e8a63d30b3b5fbf590c6a7","2","13","57749","","","","","","","","","<img src= ""rock_img/I_Gabbro_16.jpg"" style=""width:8cm; height:6.44cm;""><p>What type of rock is this?</p>","6","class_response","0","test","34","Peridotite","Gabbro","16","false","7","4","",""
"","","","","","","","","","","","html-keyboard-response","74","2.0.0","1031141","64e8a63d30b3b5fbf590c6a7","2","13","null","","","","","","","","","<p style='font-size: 30px;'><strong>Okay</strong></p>","null","neutral_feedback","0","test","34","","","","","","","",""
"","","","","","","","","","","","html-button-response","75","2.0.0","1050830","64e8a63d30b3b5fbf590c6a7","2","13","19686","","","","","","","","","<img src= ""rock_img/I_Andesite_02.jpg"" style=""width:8cm; height:8.5cm;""><p>What type of rock is this?</p>","1","class_response","0","test","35","Basalt","Andesite","02","false","2","1","",""
"","","","","","","","","","","","html-keyboard-response","76","2.0.0","1051344","64e8a63d30b3b5fbf590c6a7","2","13","null","","","","","","","","","<p style='font-size: 30px;'><strong>Okay</strong></p>","null","neutral_feedback","0","test","35","","","","","","","",""
"","","","","","","","","","","","html-button-response","77","2.0.0","1065891","64e8a63d30b3b5fbf590c6a7","2","13","14545","","","","","","","","","<img src= ""rock_img/I_Obsidian_05.jpg"" style=""width:8cm; height:6.33cm;""><p>What type of rock is this?</p>","4","class_response","0","test","36","Obsidian","Obsidian","05","true","5","5","",""
"","","","","","","","","","","","html-keyboard-response","78","2.0.0","1066407","64e8a63d30b3b5fbf590c6a7","2","13","null","","","","","","","","","<p style='font-size: 30px;'><strong>Okay</strong></p>","null","neutral_feedback","0","test","36","","","","","","","",""
"","","","","","","","","","","","html-button-response","79","2.0.0","1074632","64e8a63d30b3b5fbf590c6a7","2","13","8223","","","","","","","","","<img src= ""rock_img/I_Pumice_06.jpg"" style=""width:8cm; height:6.9399999999999995cm;""><p>What type of rock is this?</p>","7","class_response","0","test","37","Pumice","Pumice","06","true","8","8","",""
"","","","","","","","","","","","html-keyboard-response","80","2.0.0","1075136","64e8a63d30b3b5fbf590c6a7","2","13","null","","","","","","","","","<p style='font-size: 30px;'><strong>Okay</strong></p>","null","neutral_feedback","0","test","37","","","","","","","",""
"","","","","","","","","","","","html-button-response","81","2.0.0","1095046","64e8a63d30b3b5fbf590c6a7","2","13","19908","","","","","","","","","<img src= ""rock_img/I_Andesite_16.jpg"" style=""width:8cm; height:6.010000000000001cm;""><p>What type of rock is this?</p>","0","class_response","0","test","38","Andesite","Andesite","16","true","1","1","",""
"","","","","","","","","","","","html-keyboard-response","82","2.0.0","1095555","64e8a63d30b3b5fbf590c6a7","2","13","null","","","","","","","","","<p style='font-size: 30px;'><strong>Okay</strong></p>","null","neutral_feedback","0","test","38","","","","","","","",""
"","","","","","","","","","","","html-button-response","83","2.0.0","1111483","64e8a63d30b3b5fbf590c6a7","2","13","15926","","","","","","","","","<img src= ""rock_img/I_Diorite_10.jpg"" style=""width:8cm; height:5.949999999999999cm;""><p>What type of rock is this?</p>","2","class_response","0","test","39","Diorite","Diorite","10","true","3","3","",""
"","","","","","","","","","","","html-keyboard-response","84","2.0.0","1111987","64e8a63d30b3b5fbf590c6a7","2","13","null","","","","","","","","","<p style='font-size: 30px;'><strong>Okay</strong></p>","null","neutral_feedback","0","test","39","","","","","","","",""
"","","","","","","","","","","","html-button-response","85","2.0.0","1129664","64e8a63d30b3b5fbf590c6a7","2","13","17674","","","","","","","","","<img src= ""rock_img/I_Gabbro_05.jpg"" style=""width:8cm; height:6cm;""><p>What type of rock is this?</p>","3","class_response","0","test","40","Gabbro","Gabbro","05","true","4","4","",""
"","","","","","","","","","","","html-keyboard-response","86","2.0.0","1130175","64e8a63d30b3b5fbf590c6a7","2","13","null","","","","","","","","","<p style='font-size: 30px;'><strong>Okay</strong></p>","null","neutral_feedback","0","test","40","","","","","","","",""
"","","","","","","","","","","","html-button-response","87","2.0.0","1138850","64e8a63d30b3b5fbf590c6a7","2","13","8673","","","","","","","","","<img src= ""rock_img/I_Obsidian_12.jpg"" style=""width:8cm; height:6.53cm;""><p>What type of rock is this?</p>","4","class_response","0","test","41","Obsidian","Obsidian","12","true","5","5","",""
"","","","","","","","","","","","html-keyboard-response","88","2.0.0","1139354","64e8a63d30b3b5fbf590c6a7","2","13","null","","","","","","","","","<p style='font-size: 30px;'><strong>Okay</strong></p>","null","neutral_feedback","0","test","41","","","","","","","",""
"","","","","","","","","","","","html-button-response","89","2.0.0","1147686","64e8a63d30b3b5fbf590c6a7","2","13","8330","","","","","","","","","<img src= ""rock_img/I_Andesite_14.jpg"" style=""width:8cm; height:5.449999999999999cm;""><p>What type of rock is this?</p>","0","class_response","0","test","42","Andesite","Andesite","14","true","1","1","",""
"","","","","","","","","","","","html-keyboard-response","90","2.0.0","1148201","64e8a63d30b3b5fbf590c6a7","2","13","null","","","","","","","","","<p style='font-size: 30px;'><strong>Okay</strong></p>","null","neutral_feedback","0","test","42","","","","","","","",""
"","","","","","","","","","","","html-button-response","91","2.0.0","1154811","64e8a63d30b3b5fbf590c6a7","2","13","6608","","","","","","","","","<img src= ""rock_img/I_Gabbro_08.jpg"" style=""width:8cm; height:5.15cm;""><p>What type of rock is this?</p>","3","class_response","0","test","43","Gabbro","Gabbro","08","true","4","4","",""
"","","","","","","","","","","","html-keyboard-response","92","2.0.0","1155328","64e8a63d30b3b5fbf590c6a7","2","13","null","","","","","","","","","<p style='font-size: 30px;'><strong>Okay</strong></p>","null","neutral_feedback","0","test","43","","","","","","","",""
"","","","","","","","","","","","html-button-response","93","2.0.0","1169559","64e8a63d30b3b5fbf590c6a7","2","13","14228","","","","","","","","","<img src= ""rock_img/I_Peridotite_13.jpg"" style=""width:8cm; height:7.58cm;""><p>What type of rock is this?</p>","6","class_response","0","test","44","Peridotite","Peridotite","13","true","7","7","",""
"","","","","","","","","","","","html-keyboard-response","94","2.0.0","1170062","64e8a63d30b3b5fbf590c6a7","2","13","null","","","","","","","","","<p style='font-size: 30px;'><strong>Okay</strong></p>","null","neutral_feedback","0","test","44","","","","","","","",""
"","","","","","","","","","","","html-button-response","95","2.0.0","1212540","64e8a63d30b3b5fbf590c6a7","2","13","42476","","","","","","","","","<img src= ""rock_img/I_Basalt_16.jpg"" style=""width:8cm; height:7.659999999999999cm;""><p>What type of rock is this?</p>","0","class_response","0","test","45","Andesite","Basalt","16","false","1","2","",""
"","","","","","","","","","","","html-keyboard-response","96","2.0.0","1213045","64e8a63d30b3b5fbf590c6a7","2","13","null","","","","","","","","","<p style='font-size: 30px;'><strong>Okay</strong></p>","null","neutral_feedback","0","test","45","","","","","","","",""
"","","","","","","","","","","","html-button-response","97","2.0.0","1241227","64e8a63d30b3b5fbf590c6a7","2","13","28180","","","","","","","","","<img src= ""rock_img/I_Diorite_14.jpg"" style=""width:8cm; height:5.71cm;""><p>What type of rock is this?</p>","2","class_response","0","test","46","Diorite","Diorite","14","true","3","3","",""
"","","","","","","","","","","","html-keyboard-response","98","2.0.0","1241728","64e8a63d30b3b5fbf590c6a7","2","13","null","","","","","","","","","<p style='font-size: 30px;'><strong>Okay</strong></p>","null","neutral_feedback","0","test","46","","","","","","","",""
"","","","","","","","","","","","html-button-response","99","2.0.0","1255073","64e8a63d30b3b5fbf590c6a7","2","13","13342","","","","","","","","","<img src= ""rock_img/I_Pumice_16.jpg"" style=""width:8cm; height:6.79cm;""><p>What type of rock is this?</p>","6","class_response","0","test","47","Peridotite","Pumice","16","false","7","8","",""
"","","","","","","","","","","","html-keyboard-response","100","2.0.0","1255586","64e8a63d30b3b5fbf590c6a7","2","13","null","","","","","","","","","<p style='font-size: 30px;'><strong>Okay</strong></p>","null","neutral_feedback","0","test","47","","","","","","","",""
"","","","","","","","","","","","html-button-response","101","2.0.0","1272767","64e8a63d30b3b5fbf590c6a7","2","13","17179","","","","","","","","","<img src= ""rock_img/I_Andesite_05.jpg"" style=""width:8cm; height:4.12cm;""><p>What type of rock is this?</p>","1","class_response","0","test","48","Basalt","Andesite","05","false","2","1","",""
"","","","","","","","","","","","html-keyboard-response","102","2.0.0","1273273","64e8a63d30b3b5fbf590c6a7","2","13","null","","","","","","","","","<p style='font-size: 30px;'><strong>Okay</strong></p>","null","neutral_feedback","0","test","48","","","","","","","",""
"","","","","","","","","","","","instructions","103","2.0.0","1286465","64e8a63d30b3b5fbf590c6a7","2","13","13154","","","","","","","","[{""page_index"":0,""viewing_time"":8337},{""page_index"":1,""viewing_time"":2934},{""page_index"":2,""viewing_time"":1883}]","","","","","","","","","","","","","",""
"","","","","","","","","","","","html-button-response","104","2.0.0","1294130","64e8a63d30b3b5fbf590c6a7","2","13","7664","","","","","","","","","","0","start_train","","","","","","","","","","",""
"","","","","","","","","","","","html-button-response","105","2.0.0","1305588","64e8a63d30b3b5fbf590c6a7","2","13","11456","","","","","","","","","<img src= ""rock_img/I_Andesite_04.jpg"" style=""width:8cm; height:5.96cm;""><p>What type of rock is this?</p>","0","class_response","1","train","1","Andesite","Andesite","04","true","1","1","",""
"","","","","","","","","","","","html-button-response","106","2.0.0","1307713","64e8a63d30b3b5fbf590c6a7","2","13","2123","","","","","","","","","<img src= rock_img/I_Andesite_04.jpg style=""width:8cm; height:5.96cm;""><p style='font-size: 30px; color: green;'><strong>Correct!</strong></p><p style='font-size: 30px;'><strong>This rock is andesite</strong></p>","0","corr_feedback","1","train","1","","","","","","","",""
"","","","","","","","","","","","html-button-response","107","2.0.0","1331478","64e8a63d30b3b5fbf590c6a7","2","13","23762","","","","","","","","","<img src= ""rock_img/I_Basalt_14.jpg"" style=""width:8cm; height:5.82cm;""><p>What type of rock is this?</p>","6","class_response","1","train","2","Peridotite","Basalt","14","false","7","2","",""
"","","","","","","","","","","","html-button-response","108","2.0.0","1333272","64e8a63d30b3b5fbf590c6a7","2","13","1793","","","","","","","","","<img src= rock_img/I_Basalt_14.jpg style=""width:8cm; height:5.82cm;""><p style='font-size: 30px; color: red;'><strong>Incorrect!</strong></p><p style='font-size: 30px;'><strong>This rock is basalt</strong></p>","0","corr_feedback","1","train","2","","","","","","","",""
"","","","","","","","","","","","html-button-response","109","2.0.0","1343899","64e8a63d30b3b5fbf590c6a7","2","13","10625","","","","","","","","","<img src= ""rock_img/I_Obsidian_06.jpg"" style=""width:8cm; height:6.8cm;""><p>What type of rock is this?</p>","4","class_response","1","train","3","Obsidian","Obsidian","06","true","5","5","",""
"","","","","","","","","","","","html-button-response","110","2.0.0","1345126","64e8a63d30b3b5fbf590c6a7","2","13","1226","","","","","","","","","<img src= rock_img/I_Obsidian_06.jpg style=""width:8cm; height:6.8cm;""><p style='font-size: 30px; color: green;'><strong>Correct!</strong></p><p style='font-size: 30px;'><strong>This rock is obsidian</strong></p>","0","corr_feedback","1","train","3","","","","","","","",""
"","","","","","","","","","","","html-button-response","111","2.0.0","1355672","64e8a63d30b3b5fbf590c6a7","2","13","10544","","","","","","","","","<img src= ""rock_img/I_Andesite_07.jpg"" style=""width:8cm; height:5.93cm;""><p>What type of rock is this?</p>","0","class_response","1","train","4","Andesite","Andesite","07","true","1","1","",""
"","","","","","","","","","","","html-button-response","112","2.0.0","1356710","64e8a63d30b3b5fbf590c6a7","2","13","1037","","","","","","","","","<img src= rock_img/I_Andesite_07.jpg style=""width:8cm; height:5.93cm;""><p style='font-size: 30px; color: green;'><strong>Correct!</strong></p><p style='font-size: 30px;'><strong>This rock is andesite</strong></p>","0","corr_feedback","1","train","4","","","","","","","",""
"","","","","","","","","","","","html-button-response","113","2.0.0","1364224","64e8a63d30b3b5fbf590c6a7","2","13","7512","","","","","","","","","<img src= ""rock_img/I_Basalt_01.jpg"" style=""width:8cm; height:7.880000000000001cm;""><p>What type of rock is this?</p>","1","class_response","1","train","5","Basalt","Basalt","01","true","2","2","",""
"","","","","","","","","","","","html-button-response","114","2.0.0","1365146","64e8a63d30b3b5fbf590c6a7","2","13","921","","","","","","","","","<img src= rock_img/I_Basalt_01.jpg style=""width:8cm; height:7.880000000000001cm;""><p style='font-size: 30px; color: green;'><strong>Correct!</strong></p><p style='font-size: 30px;'><strong>This rock is basalt</strong></p>","0","corr_feedback","1","train","5","","","","","","","",""
"","","","","","","","","","","","html-button-response","115","2.0.0","1379918","64e8a63d30b3b5fbf590c6a7","2","13","14770","","","","","","","","","<img src= ""rock_img/I_Pegmatite_15.jpg"" style=""width:8cm; height:6cm;""><p>What type of rock is this?</p>","5","class_response","1","train","6","Pegmatite","Pegmatite","15","true","6","6","",""
"","","","","","","","","","","","html-button-response","116","2.0.0","1381395","64e8a63d30b3b5fbf590c6a7","2","13","1475","","","","","","","","","<img src= rock_img/I_Pegmatite_15.jpg style=""width:8cm; height:6cm;""><p style='font-size: 30px; color: green;'><strong>Correct!</strong></p><p style='font-size: 30px;'><strong>This rock is pegmatite</strong></p>","0","corr_feedback","1","train","6","","","","","","","",""
"","","","","","","","","","","","html-button-response","117","2.0.0","1396059","64e8a63d30b3b5fbf590c6a7","2","13","14662","","","","","","","","","<img src= ""rock_img/I_Diorite_13.jpg"" style=""width:8cm; height:6.29cm;""><p>What type of rock is this?</p>","1","class_response","1","train","7","Basalt","Diorite","13","false","2","3","",""
"","","","","","","","","","","","html-button-response","118","2.0.0","1397090","64e8a63d30b3b5fbf590c6a7","2","13","1029","","","","","","","","","<img src= rock_img/I_Diorite_13.jpg style=""width:8cm; height:6.29cm;""><p style='font-size: 30px; color: red;'><strong>Incorrect!</strong></p><p style='font-size: 30px;'><strong>This rock is diorite</strong></p>","0","corr_feedback","1","train","7","","","","","","","",""
"","","","","","","","","","","","html-button-response","119","2.0.0","1415494","64e8a63d30b3b5fbf590c6a7","2","13","18402","","","","","","","","","<img src= ""rock_img/I_Basalt_04.jpg"" style=""width:8cm; height:7.53cm;""><p>What type of rock is this?</p>","2","class_response","1","train","8","Diorite","Basalt","04","false","3","2","",""
"","","","","","","","","","","","html-button-response","120","2.0.0","1416479","64e8a63d30b3b5fbf590c6a7","2","13","983","","","","","","","","","<img src= rock_img/I_Basalt_04.jpg style=""width:8cm; height:7.53cm;""><p style='font-size: 30px; color: red;'><strong>Incorrect!</strong></p><p style='font-size: 30px;'><strong>This rock is basalt</strong></p>","0","corr_feedback","1","train","8","","","","","","","",""
"","","","","","","","","","","","html-button-response","121","2.0.0","1435767","64e8a63d30b3b5fbf590c6a7","2","13","19286","","","","","","","","","<img src= ""rock_img/I_Diorite_08.jpg"" style=""width:8cm; height:6.37cm;""><p>What type of rock is this?</p>","2","class_response","1","train","9","Diorite","Diorite","08","true","3","3","",""
"","","","","","","","","","","","html-button-response","122","2.0.0","1436765","64e8a63d30b3b5fbf590c6a7","2","13","996","","","","","","","","","<img src= rock_img/I_Diorite_08.jpg style=""width:8cm; height:6.37cm;""><p style='font-size: 30px; color: green;'><strong>Correct!</strong></p><p style='font-size: 30px;'><strong>This rock is diorite</strong></p>","0","corr_feedback","1","train","9","","","","","","","",""
"","","","","","","","","","","","html-button-response","123","2.0.0","1457125","64e8a63d30b3b5fbf590c6a7","2","13","20358","","","","","","","","","<img src= ""rock_img/I_Gabbro_01.jpg"" style=""width:8cm; height:5.21cm;""><p>What type of rock is this?</p>","1","class_response","1","train","10","Basalt","Gabbro","01","false","2","4","",""
"","","","","","","","","","","","html-button-response","124","2.0.0","1458030","64e8a63d30b3b5fbf590c6a7","2","13","904","","","","","","","","","<img src= rock_img/I_Gabbro_01.jpg style=""width:8cm; height:5.21cm;""><p style='font-size: 30px; color: red;'><strong>Incorrect!</strong></p><p style='font-size: 30px;'><strong>This rock is gabbro</strong></p>","0","corr_feedback","1","train","10","","","","","","","",""
"","","","","","","","","","","","html-button-response","125","2.0.0","1468023","64e8a63d30b3b5fbf590c6a7","2","13","9991","","","","","","","","","<img src= ""rock_img/I_Basalt_04.jpg"" style=""width:8cm; height:7.53cm;""><p>What type of rock is this?</p>","2","class_response","1","train","11","Diorite","Basalt","04","false","3","2","",""
"","","","","","","","","","","","html-button-response","126","2.0.0","1468792","64e8a63d30b3b5fbf590c6a7","2","13","767","","","","","","","","","<img src= rock_img/I_Basalt_04.jpg style=""width:8cm; height:7.53cm;""><p style='font-size: 30px; color: red;'><strong>Incorrect!</strong></p><p style='font-size: 30px;'><strong>This rock is basalt</strong></p>","0","corr_feedback","1","train","11","","","","","","","",""
"","","","","","","","","","","","html-button-response","127","2.0.0","1480772","64e8a63d30b3b5fbf590c6a7","2","13","11978","","","","","","","","","<img src= ""rock_img/I_Gabbro_13.jpg"" style=""width:8cm; height:5.08cm;""><p>What type of rock is this?</p>","5","class_response","1","train","12","Pegmatite","Gabbro","13","false","6","4","",""
"","","","","","","","","","","","html-button-response","128","2.0.0","1481620","64e8a63d30b3b5fbf590c6a7","2","13","846","","","","","","","","","<img src= rock_img/I_Gabbro_13.jpg style=""width:8cm; height:5.08cm;""><p style='font-size: 30px; color: red;'><strong>Incorrect!</strong></p><p style='font-size: 30px;'><strong>This rock is gabbro</strong></p>","0","corr_feedback","1","train","12","","","","","","","",""
"","","","","","","","","","","","html-button-response","129","2.0.0","1490122","64e8a63d30b3b5fbf590c6a7","2","13","8500","","","","","","","","","<img src= ""rock_img/I_Basalt_11.jpg"" style=""width:8cm; height:5.359999999999999cm;""><p>What type of rock is this?</p>","1","class_response","1","train","13","Basalt","Basalt","11","true","2","2","",""
"","","","","","","","","","","","html-button-response","130","2.0.0","1491057","64e8a63d30b3b5fbf590c6a7","2","13","934","","","","","","","","","<img src= rock_img/I_Basalt_11.jpg style=""width:8cm; height:5.359999999999999cm;""><p style='font-size: 30px; color: green;'><strong>Correct!</strong></p><p style='font-size: 30px;'><strong>This rock is basalt</strong></p>","0","corr_feedback","1","train","13","","","","","","","",""
"","","","","","","","","","","","html-button-response","131","2.0.0","1515671","64e8a63d30b3b5fbf590c6a7","2","13","24612","","","","","","","","","<img src= ""rock_img/I_Peridotite_07.jpg"" style=""width:8cm; height:4.83cm;""><p>What type of rock is this?</p>","3","class_response","1","train","14","Gabbro","Peridotite","07","false","4","7","",""
"","","","","","","","","","","","html-button-response","132","2.0.0","1525881","64e8a63d30b3b5fbf590c6a7","2","13","10209","","","","","","","","","<img src= rock_img/I_Peridotite_07.jpg style=""width:8cm; height:4.83cm;""><p style='font-size: 30px; color: red;'><strong>Incorrect!</strong></p><p style='font-size: 30px;'><strong>This rock is peridotite</strong></p>","0","corr_feedback","1","train","14","","","","","","","",""
"","","","","","","","","","","","html-button-response","133","2.0.0","1535960","64e8a63d30b3b5fbf590c6a7","2","13","10077","","","","","","","","","<img src= ""rock_img/I_Basalt_14.jpg"" style=""width:8cm; height:5.82cm;""><p>What type of rock is this?</p>","0","class_response","1","train","15","Andesite","Basalt","14","false","1","2","",""
"","","","","","","","","","","","html-button-response","134","2.0.0","1536924","64e8a63d30b3b5fbf590c6a7","2","13","962","","","","","","","","","<img src= rock_img/I_Basalt_14.jpg style=""width:8cm; height:5.82cm;""><p style='font-size: 30px; color: red;'><strong>Incorrect!</strong></p><p style='font-size: 30px;'><strong>This rock is basalt</strong></p>","0","corr_feedback","1","train","15","","","","","","","",""
"","","","","","","","","","","","html-button-response","135","2.0.0","1577698","64e8a63d30b3b5fbf590c6a7","2","13","40772","","","","","","","","","<img src= ""rock_img/I_Gabbro_15.jpg"" style=""width:8cm; height:6.29cm;""><p>What type of rock is this?</p>","2","class_response","1","train","16","Diorite","Gabbro","15","false","3","4","",""
"","","","","","","","","","","","html-button-response","136","2.0.0","1578595","64e8a63d30b3b5fbf590c6a7","2","13","896","","","","","","","","","<img src= rock_img/I_Gabbro_15.jpg style=""width:8cm; height:6.29cm;""><p style='font-size: 30px; color: red;'><strong>Incorrect!</strong></p><p style='font-size: 30px;'><strong>This rock is gabbro</strong></p>","0","corr_feedback","1","train","16","","","","","","","",""
"","","","","","","","","","","","html-button-response","137","2.0.0","1617448","64e8a63d30b3b5fbf590c6a7","2","13","38851","","","","","","","","","<img src= ""rock_img/I_Gabbro_09.jpg"" style=""width:8cm; height:7.279999999999999cm;""><p>What type of rock is this?</p>","0","class_response","1","train","17","Andesite","Gabbro","09","false","1","4","",""
"","","","","","","","","","","","html-button-response","138","2.0.0","1618288","64e8a63d30b3b5fbf590c6a7","2","13","839","","","","","","","","","<img src= rock_img/I_Gabbro_09.jpg style=""width:8cm; height:7.279999999999999cm;""><p style='font-size: 30px; color: red;'><strong>Incorrect!</strong></p><p style='font-size: 30px;'><strong>This rock is gabbro</strong></p>","0","corr_feedback","1","train","17","","","","","","","",""
"","","","","","","","","","","","html-button-response","139","2.0.0","1620065","64e8a63d30b3b5fbf590c6a7","2","13","1775","","","","","","","","","<img src= ""rock_img/I_Andesite_10.jpg"" style=""width:8cm; height:4.16cm;""><p>What type of rock is this?</p>","1","class_response","1","train","18","Basalt","Andesite","10","false","2","1","",""
"","","","","","","","","","","","html-button-response","140","2.0.0","1620780","64e8a63d30b3b5fbf590c6a7","2","13","713","","","","","","","","","<img src= rock_img/I_Andesite_10.jpg style=""width:8cm; height:4.16cm;""><p style='font-size: 30px; color: red;'><strong>Incorrect!</strong></p><p style='font-size: 30px;'><strong>This rock is andesite</strong></p>","0","corr_feedback","1","train","18","","","","","","","",""
"","","","","","","","","","","","html-button-response","141","2.0.0","1622054","64e8a63d30b3b5fbf590c6a7","2","13","1272","","","","","","","","","<img src= ""rock_img/I_Gabbro_11.jpg"" style=""width:8cm; height:6.2cm;""><p>What type of rock is this?</p>","2","class_response","1","train","19","Diorite","Gabbro","11","false","3","4","",""
"","","","","","","","","","","","html-button-response","142","2.0.0","1623172","64e8a63d30b3b5fbf590c6a7","2","13","1116","","","","","","","","","<img src= rock_img/I_Gabbro_11.jpg style=""width:8cm; height:6.2cm;""><p style='font-size: 30px; color: red;'><strong>Incorrect!</strong></p><p style='font-size: 30px;'><strong>This rock is gabbro</strong></p>","0","corr_feedback","1","train","19","","","","","","","",""
"","","","","","","","","","","","html-button-response","143","2.0.0","1638524","64e8a63d30b3b5fbf590c6a7","2","13","15350","","","","","","","","","<img src= ""rock_img/I_Pegmatite_07.jpg"" style=""width:8cm; height:6.7cm;""><p>What type of rock is this?</p>","5","class_response","1","train","20","Pegmatite","Pegmatite","07","true","6","6","",""
"","","","","","","","","","","","html-button-response","144","2.0.0","1639518","64e8a63d30b3b5fbf590c6a7","2","13","993","","","","","","","","","<img src= rock_img/I_Pegmatite_07.jpg style=""width:8cm; height:6.7cm;""><p style='font-size: 30px; color: green;'><strong>Correct!</strong></p><p style='font-size: 30px;'><strong>This rock is pegmatite</strong></p>","0","corr_feedback","1","train","20","","","","","","","",""
"","","","","","","","","","","","html-button-response","145","2.0.0","1650885","64e8a63d30b3b5fbf590c6a7","2","13","11365","","","","","","","","","<img src= ""rock_img/I_Andesite_04.jpg"" style=""width:8cm; height:5.96cm;""><p>What type of rock is this?</p>","5","class_response","1","train","21","Pegmatite","Andesite","04","false","6","1","",""
"","","","","","","","","","","","html-button-response","146","2.0.0","1651638","64e8a63d30b3b5fbf590c6a7","2","13","752","","","","","","","","","<img src= rock_img/I_Andesite_04.jpg style=""width:8cm; height:5.96cm;""><p style='font-size: 30px; color: red;'><strong>Incorrect!</strong></p><p style='font-size: 30px;'><strong>This rock is andesite</strong></p>","0","corr_feedback","1","train","21","","","","","","","",""
"","","","","","","","","","","","html-button-response","147","2.0.0","1664007","64e8a63d30b3b5fbf590c6a7","2","13","12367","","","","","","","","","<img src= ""rock_img/I_Peridotite_07.jpg"" style=""width:8cm; height:4.83cm;""><p>What type of rock is this?</p>","1","class_response","1","train","22","Basalt","Peridotite","07","false","2","7","",""
"","","","","","","","","","","","html-button-response","148","2.0.0","1664806","64e8a63d30b3b5fbf590c6a7","2","13","797","","","","","","","","","<img src= rock_img/I_Peridotite_07.jpg style=""width:8cm; height:4.83cm;""><p style='font-size: 30px; color: red;'><strong>Incorrect!</strong></p><p style='font-size: 30px;'><strong>This rock is peridotite</strong></p>","0","corr_feedback","1","train","22","","","","","","","",""
"","","","","","","","","","","","html-button-response","149","2.0.0","1686272","64e8a63d30b3b5fbf590c6a7","2","13","21465","","","","","","","","","<img src= ""rock_img/I_Andesite_10.jpg"" style=""width:8cm; height:4.16cm;""><p>What type of rock is this?</p>","1","class_response","1","train","23","Basalt","Andesite","10","false","2","1","",""
"","","","","","","","","","","","html-button-response","150","2.0.0","1687227","64e8a63d30b3b5fbf590c6a7","2","13","954","","","","","","","","","<img src= rock_img/I_Andesite_10.jpg style=""width:8cm; height:4.16cm;""><p style='font-size: 30px; color: red;'><strong>Incorrect!</strong></p><p style='font-size: 30px;'><strong>This rock is andesite</strong></p>","0","corr_feedback","1","train","23","","","","","","","",""
"","","","","","","","","","","","html-button-response","151","2.0.0","1698714","64e8a63d30b3b5fbf590c6a7","2","13","11484","","","","","","","","","<img src= ""rock_img/I_Obsidian_14.jpg"" style=""width:8cm; height:7.64cm;""><p>What type of rock is this?</p>","4","class_response","1","train","24","Obsidian","Obsidian","14","true","5","5","",""
"","","","","","","","","","","","html-button-response","152","2.0.0","1699629","64e8a63d30b3b5fbf590c6a7","2","13","914","","","","","","","","","<img src= rock_img/I_Obsidian_14.jpg style=""width:8cm; height:7.64cm;""><p style='font-size: 30px; color: green;'><strong>Correct!</strong></p><p style='font-size: 30px;'><strong>This rock is obsidian</strong></p>","0","corr_feedback","1","train","24","","","","","","","",""
"","","","","","","","","","","","html-button-response","153","2.0.0","1717256","64e8a63d30b3b5fbf590c6a7","2","13","17625","","","","","","","","","<img src= ""rock_img/I_Pegmatite_10.jpg"" style=""width:8cm; height:4.16cm;""><p>What type of rock is this?</p>","0","class_response","1","train","25","Andesite","Pegmatite","10","false","1","6","",""
"","","","","","","","","","","","html-button-response","154","2.0.0","1718022","64e8a63d30b3b5fbf590c6a7","2","13","764","","","","","","","","","<img src= rock_img/I_Pegmatite_10.jpg style=""width:8cm; height:4.16cm;""><p style='font-size: 30px; color: red;'><strong>Incorrect!</strong></p><p style='font-size: 30px;'><strong>This rock is pegmatite</strong></p>","0","corr_feedback","1","train","25","","","","","","","",""
"","","","","","","","","","","","html-button-response","155","2.0.0","1759723","64e8a63d30b3b5fbf590c6a7","2","13","41699","","","","","","","","","<img src= ""rock_img/I_Basalt_11.jpg"" style=""width:8cm; height:5.359999999999999cm;""><p>What type of rock is this?</p>","1","class_response","1","train","26","Basalt","Basalt","11","true","2","2","",""
"","","","","","","","","","","","html-button-response","156","2.0.0","1760520","64e8a63d30b3b5fbf590c6a7","2","13","796","","","","","","","","","<img src= rock_img/I_Basalt_11.jpg style=""width:8cm; height:5.359999999999999cm;""><p style='font-size: 30px; color: green;'><strong>Correct!</strong></p><p style='font-size: 30px;'><strong>This rock is basalt</strong></p>","0","corr_feedback","1","train","26","","","","","","","",""
"","","","","","","","","","","","html-button-response","157","2.0.0","1769751","64e8a63d30b3b5fbf590c6a7","2","13","9229","","","","","","","","","<img src= ""rock_img/I_Pegmatite_06.jpg"" style=""width:8cm; height:5.17cm;""><p>What type of rock is this?</p>","0","class_response","1","train","27","Andesite","Pegmatite","06","false","1","6","",""
"","","","","","","","","","","","html-button-response","158","2.0.0","1770640","64e8a63d30b3b5fbf590c6a7","2","13","888","","","","","","","","","<img src= rock_img/I_Pegmatite_06.jpg style=""width:8cm; height:5.17cm;""><p style='font-size: 30px; color: red;'><strong>Incorrect!</strong></p><p style='font-size: 30px;'><strong>This rock is pegmatite</strong></p>","0","corr_feedback","1","train","27","","","","","","","",""
"","","","","","","","","","","","html-button-response","159","2.0.0","1772398","64e8a63d30b3b5fbf590c6a7","2","13","1756","","","","","","","","","<img src= ""rock_img/I_Gabbro_15.jpg"" style=""width:8cm; height:6.29cm;""><p>What type of rock is this?</p>","5","class_response","1","train","28","Pegmatite","Gabbro","15","false","6","4","",""
"","","","","","","","","","","","html-button-response","160","2.0.0","1772996","64e8a63d30b3b5fbf590c6a7","2","13","596","","","","","","","","","<img src= rock_img/I_Gabbro_15.jpg style=""width:8cm; height:6.29cm;""><p style='font-size: 30px; color: red;'><strong>Incorrect!</strong></p><p style='font-size: 30px;'><strong>This rock is gabbro</strong></p>","0","corr_feedback","1","train","28","","","","","","","",""
"","","","","","","","","","","","html-button-response","161","2.0.0","1774712","64e8a63d30b3b5fbf590c6a7","2","13","1714","","","","","","","","","<img src= ""rock_img/I_Obsidian_11.jpg"" style=""width:8cm; height:6.05cm;""><p>What type of rock is this?</p>","4","class_response","1","train","29","Obsidian","Obsidian","11","true","5","5","",""
"","","","","","","","","","","","html-button-response","162","2.0.0","1775352","64e8a63d30b3b5fbf590c6a7","2","13","639","","","","","","","","","<img src= rock_img/I_Obsidian_11.jpg style=""width:8cm; height:6.05cm;""><p style='font-size: 30px; color: green;'><strong>Correct!</strong></p><p style='font-size: 30px;'><strong>This rock is obsidian</strong></p>","0","corr_feedback","1","train","29","","","","","","","",""
"","","","","","","","","","","","html-button-response","163","2.0.0","1776900","64e8a63d30b3b5fbf590c6a7","2","13","1546","","","","","","","","","<img src= ""rock_img/I_Pegmatite_12.jpg"" style=""width:8cm; height:5.7cm;""><p>What type of rock is this?</p>","6","class_response","1","train","30","Peridotite","Pegmatite","12","false","7","6","",""
"","","","","","","","","","","","html-button-response","164","2.0.0","1777448","64e8a63d30b3b5fbf590c6a7","2","13","546","","","","","","","","","<img src= rock_img/I_Pegmatite_12.jpg style=""width:8cm; height:5.7cm;""><p style='font-size: 30px; color: red;'><strong>Incorrect!</strong></p><p style='font-size: 30px;'><strong>This rock is pegmatite</strong></p>","0","corr_feedback","1","train","30","","","","","","","",""
"","","","","","","","","","","","html-button-response","165","2.0.0","1779364","64e8a63d30b3b5fbf590c6a7","2","13","1914","","","","","","","","","<img src= ""rock_img/I_Peridotite_12.jpg"" style=""width:8cm; height:4.54cm;""><p>What type of rock is this?</p>","1","class_response","1","train","31","Basalt","Peridotite","12","false","2","7","",""
"","","","","","","","","","","","html-button-response","166","2.0.0","1779990","64e8a63d30b3b5fbf590c6a7","2","13","625","","","","","","","","","<img src= rock_img/I_Peridotite_12.jpg style=""width:8cm; height:4.54cm;""><p style='font-size: 30px; color: red;'><strong>Incorrect!</strong></p><p style='font-size: 30px;'><strong>This rock is peridotite</strong></p>","0","corr_feedback","1","train","31","","","","","","","",""
"","","","","","","","","","","","html-button-response","167","2.0.0","1781562","64e8a63d30b3b5fbf590c6a7","2","13","1570","","","","","","","","","<img src= ""rock_img/I_Basalt_12.jpg"" style=""width:8cm; height:6.010000000000001cm;""><p>What type of rock is this?</p>","6","class_response","1","train","32","Peridotite","Basalt","12","false","7","2","",""
"","","","","","","","","","","","html-button-response","168","2.0.0","1782205","64e8a63d30b3b5fbf590c6a7","2","13","642","","","","","","","","","<img src= rock_img/I_Basalt_12.jpg style=""width:8cm; height:6.010000000000001cm;""><p style='font-size: 30px; color: red;'><strong>Incorrect!</strong></p><p style='font-size: 30px;'><strong>This rock is basalt</strong></p>","0","corr_feedback","1","train","32","","","","","","","",""
"","","","","","","","","","","","html-button-response","169","2.0.0","1783244","64e8a63d30b3b5fbf590c6a7","2","13","1037","","","","","","","","","<img src= ""rock_img/I_Peridotite_06.jpg"" style=""width:8cm; height:7.53cm;""><p>What type of rock is this?</p>","5","class_response","1","train","33","Pegmatite","Peridotite","06","false","6","7","",""
"","","","","","","","","","","","html-button-response","170","2.0.0","1783910","64e8a63d30b3b5fbf590c6a7","2","13","665","","","","","","","","","<img src= rock_img/I_Peridotite_06.jpg style=""width:8cm; height:7.53cm;""><p style='font-size: 30px; color: red;'><strong>Incorrect!</strong></p><p style='font-size: 30px;'><strong>This rock is peridotite</strong></p>","0","corr_feedback","1","train","33","","","","","","","",""
"","","","","","","","","","","","html-button-response","171","2.0.0","1784548","64e8a63d30b3b5fbf590c6a7","2","13","635","","","","","","","","","<img src= ""rock_img/I_Peridotite_02.jpg"" style=""width:8cm; height:5.859999999999999cm;""><p>What type of rock is this?</p>","1","class_response","1","train","34","Basalt","Peridotite","02","false","2","7","",""
"","","","","","","","","","","","html-button-response","172","2.0.0","1785269","64e8a63d30b3b5fbf590c6a7","2","13","719","","","","","","","","","<img src= rock_img/I_Peridotite_02.jpg style=""width:8cm; height:5.859999999999999cm;""><p style='font-size: 30px; color: red;'><strong>Incorrect!</strong></p><p style='font-size: 30px;'><strong>This rock is peridotite</strong></p>","0","corr_feedback","1","train","34","","","","","","","",""
"","","","","","","","","","","","html-button-response","173","2.0.0","1789024","64e8a63d30b3b5fbf590c6a7","2","13","3754","","","","","","","","","<img src= ""rock_img/I_Andesite_09.jpg"" style=""width:8cm; height:6cm;""><p>What type of rock is this?</p>","0","class_response","1","train","35","Andesite","Andesite","09","true","1","1","",""
"","","","","","","","","","","","html-button-response","174","2.0.0","1789943","64e8a63d30b3b5fbf590c6a7","2","13","917","","","","","","","","","<img src= rock_img/I_Andesite_09.jpg style=""width:8cm; height:6cm;""><p style='font-size: 30px; color: green;'><strong>Correct!</strong></p><p style='font-size: 30px;'><strong>This rock is andesite</strong></p>","0","corr_feedback","1","train","35","","","","","","","",""
"","","","","","","","","","","","html-button-response","175","2.0.0","1791439","64e8a63d30b3b5fbf590c6a7","2","13","1495","","","","","","","","","<img src= ""rock_img/I_Pumice_02.jpg"" style=""width:8cm; height:7.3999999999999995cm;""><p>What type of rock is this?</p>","1","class_response","1","train","36","Basalt","Pumice","02","false","2","8","",""
"","","","","","","","","","","","html-button-response","176","2.0.0","1792088","64e8a63d30b3b5fbf590c6a7","2","13","647","","","","","","","","","<img src= rock_img/I_Pumice_02.jpg style=""width:8cm; height:7.3999999999999995cm;""><p style='font-size: 30px; color: red;'><strong>Incorrect!</strong></p><p style='font-size: 30px;'><strong>This rock is pumice</strong></p>","0","corr_feedback","1","train","36","","","","","","","",""
"","","","","","","","","","","","html-button-response","177","2.0.0","1794669","64e8a63d30b3b5fbf590c6a7","2","13","2579","","","","","","","","","<img src= ""rock_img/I_Gabbro_03.jpg"" style=""width:8cm; height:8.52cm;""><p>What type of rock is this?</p>","3","class_response","1","train","37","Gabbro","Gabbro","03","true","4","4","",""
"","","","","","","","","","","","html-button-response","178","2.0.0","1795396","64e8a63d30b3b5fbf590c6a7","2","13","725","","","","","","","","","<img src= rock_img/I_Gabbro_03.jpg style=""width:8cm; height:8.52cm;""><p style='font-size: 30px; color: green;'><strong>Correct!</strong></p><p style='font-size: 30px;'><strong>This rock is gabbro</strong></p>","0","corr_feedback","1","train","37","","","","","","","",""
"","","","","","","","","","","","html-button-response","179","2.0.0","1807479","64e8a63d30b3b5fbf590c6a7","2","13","12082","","","","","","","","","<img src= ""rock_img/I_Pegmatite_11.jpg"" style=""width:8cm; height:8.14cm;""><p>What type of rock is this?</p>","5","class_response","1","train","38","Pegmatite","Pegmatite","11","true","6","6","",""
"","","","","","","","","","","","html-button-response","180","2.0.0","1808349","64e8a63d30b3b5fbf590c6a7","2","13","868","","","","","","","","","<img src= rock_img/I_Pegmatite_11.jpg style=""width:8cm; height:8.14cm;""><p style='font-size: 30px; color: green;'><strong>Correct!</strong></p><p style='font-size: 30px;'><strong>This rock is pegmatite</strong></p>","0","corr_feedback","1","train","38","","","","","","","",""
"","","","","","","","","","","","html-button-response","181","2.0.0","1810207","64e8a63d30b3b5fbf590c6a7","2","13","1856","","","","","","","","","<img src= ""rock_img/I_Pumice_13.jpg"" style=""width:8cm; height:8.200000000000001cm;""><p>What type of rock is this?</p>","7","class_response","1","train","39","Pumice","Pumice","13","true","8","8","",""
"","","","","","","","","","","","html-button-response","182","2.0.0","1811149","64e8a63d30b3b5fbf590c6a7","2","13","941","","","","","","","","","<img src= rock_img/I_Pumice_13.jpg style=""width:8cm; height:8.200000000000001cm;""><p style='font-size: 30px; color: green;'><strong>Correct!</strong></p><p style='font-size: 30px;'><strong>This rock is pumice</strong></p>","0","corr_feedback","1","train","39","","","","","","","",""
"","","","","","","","","","","","html-button-response","183","2.0.0","1822256","64e8a63d30b3b5fbf590c6a7","2","13","11105","","","","","","","","","<img src= ""rock_img/I_Basalt_05.jpg"" style=""width:8cm; height:8.18cm;""><p>What type of rock is this?</p>","3","class_response","1","train","40","Gabbro","Basalt","05","false","4","2","",""
"","","","","","","","","","","","html-button-response","184","2.0.0","1823206","64e8a63d30b3b5fbf590c6a7","2","13","949","","","","","","","","","<img src= rock_img/I_Basalt_05.jpg style=""width:8cm; height:8.18cm;""><p style='font-size: 30px; color: red;'><strong>Incorrect!</strong></p><p style='font-size: 30px;'><strong>This rock is basalt</strong></p>","0","corr_feedback","1","train","40","","","","","","","",""
"","","","","","","","","","","","html-button-response","185","2.0.0","1838325","64e8a63d30b3b5fbf590c6a7","2","13","15116","","","","","","","","","<img src= ""rock_img/I_Peridotite_04.jpg"" style=""width:8cm; height:6.680000000000001cm;""><p>What type of rock is this?</p>","5","class_response","1","train","41","Pegmatite","Peridotite","04","false","6","7","",""
"","","","","","","","","","","","html-button-response","186","2.0.0","1839146","64e8a63d30b3b5fbf590c6a7","2","13","820","","","","","","","","","<img src= rock_img/I_Peridotite_04.jpg style=""width:8cm; height:6.680000000000001cm;""><p style='font-size: 30px; color: red;'><strong>Incorrect!</strong></p><p style='font-size: 30px;'><strong>This rock is peridotite</strong></p>","0","corr_feedback","1","train","41","","","","","","","",""
"","","","","","","","","","","","html-button-response","187","2.0.0","1840577","64e8a63d30b3b5fbf590c6a7","2","13","1429","","","","","","","","","<img src= ""rock_img/I_Peridotite_08.jpg"" style=""width:8cm; height:6.7cm;""><p>What type of rock is this?</p>","1","class_response","1","train","42","Basalt","Peridotite","08","false","2","7","",""
"","","","","","","","","","","","html-button-response","188","2.0.0","1841202","64e8a63d30b3b5fbf590c6a7","2","13","624","","","","","","","","","<img src= rock_img/I_Peridotite_08.jpg style=""width:8cm; height:6.7cm;""><p style='font-size: 30px; color: red;'><strong>Incorrect!</strong></p><p style='font-size: 30px;'><strong>This rock is peridotite</strong></p>","0","corr_feedback","1","train","42","","","","","","","",""
"","","","","","","","","","","","html-button-response","189","2.0.0","1842338","64e8a63d30b3b5fbf590c6a7","2","13","1134","","","","","","","","","<img src= ""rock_img/I_Pegmatite_06.jpg"" style=""width:8cm; height:5.17cm;""><p>What type of rock is this?</p>","6","class_response","1","train","43","Peridotite","Pegmatite","06","false","7","6","",""
"","","","","","","","","","","","html-button-response","190","2.0.0","1842981","64e8a63d30b3b5fbf590c6a7","2","13","642","","","","","","","","","<img src= rock_img/I_Pegmatite_06.jpg style=""width:8cm; height:5.17cm;""><p style='font-size: 30px; color: red;'><strong>Incorrect!</strong></p><p style='font-size: 30px;'><strong>This rock is pegmatite</strong></p>","0","corr_feedback","1","train","43","","","","","","","",""
"","","","","","","","","","","","html-button-response","191","2.0.0","1844827","64e8a63d30b3b5fbf590c6a7","2","13","1845","","","","","","","","","<img src= ""rock_img/I_Basalt_05.jpg"" style=""width:8cm; height:8.18cm;""><p>What type of rock is this?</p>","1","class_response","1","train","44","Basalt","Basalt","05","true","2","2","",""
"","","","","","","","","","","","html-button-response","192","2.0.0","1845458","64e8a63d30b3b5fbf590c6a7","2","13","629","","","","","","","","","<img src= rock_img/I_Basalt_05.jpg style=""width:8cm; height:8.18cm;""><p style='font-size: 30px; color: green;'><strong>Correct!</strong></p><p style='font-size: 30px;'><strong>This rock is basalt</strong></p>","0","corr_feedback","1","train","44","","","","","","","",""
"","","","","","","","","","","","html-button-response","193","2.0.0","1850254","64e8a63d30b3b5fbf590c6a7","2","13","4795","","","","","","","","","<img src= ""rock_img/I_Andesite_06.jpg"" style=""width:8cm; height:6.840000000000001cm;""><p>What type of rock is this?</p>","3","class_response","1","train","45","Gabbro","Andesite","06","false","4","1","",""
"","","","","","","","","","","","html-button-response","194","2.0.0","1851455","64e8a63d30b3b5fbf590c6a7","2","13","1199","","","","","","","","","<img src= rock_img/I_Andesite_06.jpg style=""width:8cm; height:6.840000000000001cm;""><p style='font-size: 30px; color: red;'><strong>Incorrect!</strong></p><p style='font-size: 30px;'><strong>This rock is andesite</strong></p>","0","corr_feedback","1","train","45","","","","","","","",""
"","","","","","","","","","","","html-button-response","195","2.0.0","1852415","64e8a63d30b3b5fbf590c6a7","2","13","959","","","","","","","","","<img src= ""rock_img/I_Diorite_07.jpg"" style=""width:8cm; height:5.239999999999999cm;""><p>What type of rock is this?</p>","0","class_response","1","train","46","Andesite","Diorite","07","false","1","3","",""
"","","","","","","","","","","","html-button-response","196","2.0.0","1853072","64e8a63d30b3b5fbf590c6a7","2","13","655","","","","","","","","","<img src= rock_img/I_Diorite_07.jpg style=""width:8cm; height:5.239999999999999cm;""><p style='font-size: 30px; color: red;'><strong>Incorrect!</strong></p><p style='font-size: 30px;'><strong>This rock is diorite</strong></p>","0","corr_feedback","1","train","46","","","","","","","",""
"","","","","","","","","","","","html-button-response","197","2.0.0","1864113","64e8a63d30b3b5fbf590c6a7","2","13","11040","","","","","","","","","<img src= ""rock_img/I_Andesite_01.jpg"" style=""width:8cm; height:5.87cm;""><p>What type of rock is this?</p>","1","class_response","1","train","47","Basalt","Andesite","01","false","2","1","",""
"","","","","","","","","","","","html-button-response","198","2.0.0","1869115","64e8a63d30b3b5fbf590c6a7","2","13","5001","","","","","","","","","<img src= rock_img/I_Andesite_01.jpg style=""width:8cm; height:5.87cm;""><p style='font-size: 30px; color: red;'><strong>Incorrect!</strong></p><p style='font-size: 30px;'><strong>This rock is andesite</strong></p>","0","corr_feedback","1","train","47","","","","","","","",""
"","","","","","","","","","","","html-button-response","199","2.0.0","1872380","64e8a63d30b3b5fbf590c6a7","2","13","3263","","","","","","","","","<img src= ""rock_img/I_Pumice_14.jpg"" style=""width:8cm; height:6.39cm;""><p>What type of rock is this?</p>","7","class_response","1","train","48","Pumice","Pumice","14","true","8","8","",""
"","","","","","","","","","","","html-button-response","200","2.0.0","1873128","64e8a63d30b3b5fbf590c6a7","2","13","747","","","","","","","","","<img src= rock_img/I_Pumice_14.jpg style=""width:8cm; height:6.39cm;""><p style='font-size: 30px; color: green;'><strong>Correct!</strong></p><p style='font-size: 30px;'><strong>This rock is pumice</strong></p>","0","corr_feedback","1","train","48","","","","","","","",""
"","","","","","","","","","","","instructions","203","2.0.0","1878691","64e8a63d30b3b5fbf590c6a7","2","13","5561","","","","","","","","[{""page_index"":0,""viewing_time"":4443},{""page_index"":1,""viewing_time"":1118}]","","","","","","","","","","","","","",""
"","","","","","","","","","","","html-button-response","204","2.0.0","1879969","64e8a63d30b3b5fbf590c6a7","2","13","1277","","","","","","","","","","0","start_test","","","","","","","","","","",""
"","","","","","","","","","","","html-button-response","205","2.0.0","1942671","64e8a63d30b3b5fbf590c6a7","2","13","62699","","","","","","","","","<img src= ""rock_img/I_Andesite_02.jpg"" style=""width:8cm; height:8.5cm;""><p>What type of rock is this?</p>","1","class_response","1","test","1","Basalt","Andesite","02","false","2","1","",""
"","","","","","","","","","","","html-keyboard-response","206","2.0.0","1943173","64e8a63d30b3b5fbf590c6a7","2","13","null","","","","","","","","","<p style='font-size: 30px;'><strong>Okay</strong></p>","null","neutral_feedback","1","test","1","","","","","","","",""
"","","","","","","","","","","","html-button-response","207","2.0.0","1962780","64e8a63d30b3b5fbf590c6a7","2","13","19605","","","","","","","","","<img src= ""rock_img/I_Diorite_12.jpg"" style=""width:8cm; height:4.88cm;""><p>What type of rock is this?</p>","1","class_response","1","test","2","Basalt","Diorite","12","false","2","3","",""
"","","","","","","","","","","","html-keyboard-response","208","2.0.0","1963288","64e8a63d30b3b5fbf590c6a7","2","13","null","","","","","","","","","<p style='font-size: 30px;'><strong>Okay</strong></p>","null","neutral_feedback","1","test","2","","","","","","","",""
"","","","","","","","","","","","html-button-response","209","2.0.0","1983238","64e8a63d30b3b5fbf590c6a7","2","13","19949","","","","","","","","","<img src= ""rock_img/I_Diorite_10.jpg"" style=""width:8cm; height:5.949999999999999cm;""><p>What type of rock is this?</p>","0","class_response","1","test","3","Andesite","Diorite","10","false","1","3","",""
"","","","","","","","","","","","html-keyboard-response","210","2.0.0","1983747","64e8a63d30b3b5fbf590c6a7","2","13","null","","","","","","","","","<p style='font-size: 30px;'><strong>Okay</strong></p>","null","neutral_feedback","1","test","3","","","","","","","",""
"","","","","","","","","","","","html-button-response","211","2.0.0","2003660","64e8a63d30b3b5fbf590c6a7","2","13","19911","","","","","","","","","<img src= ""rock_img/I_Peridotite_13.jpg"" style=""width:8cm; height:7.58cm;""><p>What type of rock is this?</p>","3","class_response","1","test","4","Gabbro","Peridotite","13","false","4","7","",""
"","","","","","","","","","","","html-keyboard-response","212","2.0.0","2004162","64e8a63d30b3b5fbf590c6a7","2","13","null","","","","","","","","","<p style='font-size: 30px;'><strong>Okay</strong></p>","null","neutral_feedback","1","test","4","","","","","","","",""
"","","","","","","","","","","","html-button-response","213","2.0.0","2015784","64e8a63d30b3b5fbf590c6a7","2","13","11619","","","","","","","","","<img src= ""rock_img/I_Gabbro_10.jpg"" style=""width:8cm; height:5.680000000000001cm;""><p>What type of rock is this?</p>","5","class_response","1","test","5","Pegmatite","Gabbro","10","false","6","4","",""
"","","","","","","","","","","","html-keyboard-response","214","2.0.0","2016301","64e8a63d30b3b5fbf590c6a7","2","13","null","","","","","","","","","<p style='font-size: 30px;'><strong>Okay</strong></p>","null","neutral_feedback","1","test","5","","","","","","","",""
"","","","","","","","","","","","html-button-response","215","2.0.0","2062297","64e8a63d30b3b5fbf590c6a7","2","13","45993","","","","","","","","","<img src= ""rock_img/I_Andesite_14.jpg"" style=""width:8cm; height:5.449999999999999cm;""><p>What type of rock is this?</p>","0","class_response","1","test","6","Andesite","Andesite","14","true","1","1","",""
"","","","","","","","","","","","html-keyboard-response","216","2.0.0","2062800","64e8a63d30b3b5fbf590c6a7","2","13","null","","","","","","","","","<p style='font-size: 30px;'><strong>Okay</strong></p>","null","neutral_feedback","1","test","6","","","","","","","",""
"","","","","","","","","","","","html-button-response","217","2.0.0","2070205","64e8a63d30b3b5fbf590c6a7","2","13","7404","","","","","","","","","<img src= ""rock_img/I_Basalt_02.jpg"" style=""width:8cm; height:6.45cm;""><p>What type of rock is this?</p>","1","class_response","1","test","7","Basalt","Basalt","02","true","2","2","",""
"","","","","","","","","","","","html-keyboard-response","218","2.0.0","2070707","64e8a63d30b3b5fbf590c6a7","2","13","null","","","","","","","","","<p style='font-size: 30px;'><strong>Okay</strong></p>","null","neutral_feedback","1","test","7","","","","","","","",""
"","","","","","","","","","","","html-button-response","219","2.0.0","2077998","64e8a63d30b3b5fbf590c6a7","2","13","7290","","","","","","","","","<img src= ""rock_img/I_Obsidian_07.jpg"" style=""width:8cm; height:4.76cm;""><p>What type of rock is this?</p>","4","class_response","1","test","8","Obsidian","Obsidian","07","true","5","5","",""
"","","","","","","","","","","","html-keyboard-response","220","2.0.0","2078501","64e8a63d30b3b5fbf590c6a7","2","13","null","","","","","","","","","<p style='font-size: 30px;'><strong>Okay</strong></p>","null","neutral_feedback","1","test","8","","","","","","","",""
"","","","","","","","","","","","html-button-response","221","2.0.0","2088687","64e8a63d30b3b5fbf590c6a7","2","13","10184","","","","","","","","","<img src= ""rock_img/I_Gabbro_16.jpg"" style=""width:8cm; height:6.44cm;""><p>What type of rock is this?</p>","6","class_response","1","test","9","Peridotite","Gabbro","16","false","7","4","",""
"","","","","","","","","","","","html-keyboard-response","222","2.0.0","2089203","64e8a63d30b3b5fbf590c6a7","2","13","null","","","","","","","","","<p style='font-size: 30px;'><strong>Okay</strong></p>","null","neutral_feedback","1","test","9","","","","","","","",""
"","","","","","","","","","","","html-button-response","223","2.0.0","2098098","64e8a63d30b3b5fbf590c6a7","2","13","8893","","","","","","","","","<img src= ""rock_img/I_Diorite_11.jpg"" style=""width:8cm; height:7.11cm;""><p>What type of rock is this?</p>","2","class_response","1","test","10","Diorite","Diorite","11","true","3","3","",""
"","","","","","","","","","","","html-keyboard-response","224","2.0.0","2098613","64e8a63d30b3b5fbf590c6a7","2","13","null","","","","","","","","","<p style='font-size: 30px;'><strong>Okay</strong></p>","null","neutral_feedback","1","test","10","","","","","","","",""
"","","","","","","","","","","","html-button-response","225","2.0.0","2106848","64e8a63d30b3b5fbf590c6a7","2","13","8232","","","","","","","","","<img src= ""rock_img/I_Peridotite_05.jpg"" style=""width:8cm; height:7.1499999999999995cm;""><p>What type of rock is this?</p>","1","class_response","1","test","11","Basalt","Peridotite","05","false","2","7","",""
"","","","","","","","","","","","html-keyboard-response","226","2.0.0","2107360","64e8a63d30b3b5fbf590c6a7","2","13","null","","","","","","","","","<p style='font-size: 30px;'><strong>Okay</strong></p>","null","neutral_feedback","1","test","11","","","","","","","",""
"","","","","","","","","","","","html-button-response","227","2.0.0","2114059","64e8a63d30b3b5fbf590c6a7","2","13","6697","","","","","","","","","<img src= ""rock_img/I_Gabbro_08.jpg"" style=""width:8cm; height:5.15cm;""><p>What type of rock is this?</p>","3","class_response","1","test","12","Gabbro","Gabbro","08","true","4","4","",""
"","","","","","","","","","","","html-keyboard-response","228","2.0.0","2114570","64e8a63d30b3b5fbf590c6a7","2","13","null","","","","","","","","","<p style='font-size: 30px;'><strong>Okay</strong></p>","null","neutral_feedback","1","test","12","","","","","","","",""
"","","","","","","","","","","","html-button-response","229","2.0.0","2121868","64e8a63d30b3b5fbf590c6a7","2","13","7296","","","","","","","","","<img src= ""rock_img/I_Peridotite_14.jpg"" style=""width:8cm; height:5.3cm;""><p>What type of rock is this?</p>","6","class_response","1","test","13","Peridotite","Peridotite","14","true","7","7","",""
"","","","","","","","","","","","html-keyboard-response","230","2.0.0","2122369","64e8a63d30b3b5fbf590c6a7","2","13","null","","","","","","","","","<p style='font-size: 30px;'><strong>Okay</strong></p>","null","neutral_feedback","1","test","13","","","","","","","",""
"","","","","","","","","","","","html-button-response","231","2.0.0","2124527","64e8a63d30b3b5fbf590c6a7","2","13","2155","","","","","","","","","<img src= ""rock_img/I_Pumice_04.jpg"" style=""width:8cm; height:6.819999999999999cm;""><p>What type of rock is this?</p>","7","class_response","1","test","14","Pumice","Pumice","04","true","8","8","",""
"","","","","","","","","","","","html-keyboard-response","232","2.0.0","2125029","64e8a63d30b3b5fbf590c6a7","2","13","null","","","","","","","","","<p style='font-size: 30px;'><strong>Okay</strong></p>","null","neutral_feedback","1","test","14","","","","","","","",""
"","","","","","","","","","","","html-button-response","233","2.0.0","2132304","64e8a63d30b3b5fbf590c6a7","2","13","7274","","","","","","","","","<img src= ""rock_img/I_Pegmatite_08.jpg"" style=""width:8cm; height:7.68cm;""><p>What type of rock is this?</p>","5","class_response","1","test","15","Pegmatite","Pegmatite","08","true","6","6","",""
"","","","","","","","","","","","html-keyboard-response","234","2.0.0","2132814","64e8a63d30b3b5fbf590c6a7","2","13","null","","","","","","","","","<p style='font-size: 30px;'><strong>Okay</strong></p>","null","neutral_feedback","1","test","15","","","","","","","",""
"","","","","","","","","","","","html-button-response","235","2.0.0","2138541","64e8a63d30b3b5fbf590c6a7","2","13","5725","","","","","","","","","<img src= ""rock_img/I_Pumice_09.jpg"" style=""width:8cm; height:6.44cm;""><p>What type of rock is this?</p>","7","class_response","1","test","16","Pumice","Pumice","09","true","8","8","",""
"","","","","","","","","","","","html-keyboard-response","236","2.0.0","2139042","64e8a63d30b3b5fbf590c6a7","2","13","null","","","","","","","","","<p style='font-size: 30px;'><strong>Okay</strong></p>","null","neutral_feedback","1","test","16","","","","","","","",""
"","","","","","","","","","","","html-button-response","237","2.0.0","2149625","64e8a63d30b3b5fbf590c6a7","2","13","10581","","","","","","","","","<img src= ""rock_img/I_Gabbro_14.jpg"" style=""width:8cm; height:8.48cm;""><p>What type of rock is this?</p>","5","class_response","1","test","17","Pegmatite","Gabbro","14","false","6","4","",""
"","","","","","","","","","","","html-keyboard-response","238","2.0.0","2150127","64e8a63d30b3b5fbf590c6a7","2","13","null","","","","","","","","","<p style='font-size: 30px;'><strong>Okay</strong></p>","null","neutral_feedback","1","test","17","","","","","","","",""
"","","","","","","","","","","","html-button-response","239","2.0.0","2156172","64e8a63d30b3b5fbf590c6a7","2","13","6043","","","","","","","","","<img src= ""rock_img/I_Obsidian_09.jpg"" style=""width:8cm; height:5cm;""><p>What type of rock is this?</p>","4","class_response","1","test","18","Obsidian","Obsidian","09","true","5","5","",""
"","","","","","","","","","","","html-keyboard-response","240","2.0.0","2156673","64e8a63d30b3b5fbf590c6a7","2","13","null","","","","","","","","","<p style='font-size: 30px;'><strong>Okay</strong></p>","null","neutral_feedback","1","test","18","","","","","","","",""
"","","","","","","","","","","","html-button-response","241","2.0.0","2163084","64e8a63d30b3b5fbf590c6a7","2","13","6409","","","","","","","","","<img src= ""rock_img/I_Basalt_08.jpg"" style=""width:8cm; height:10.44cm;""><p>What type of rock is this?</p>","1","class_response","1","test","19","Basalt","Basalt","08","true","2","2","",""
"","","","","","","","","","","","html-keyboard-response","242","2.0.0","2163600","64e8a63d30b3b5fbf590c6a7","2","13","null","","","","","","","","","<p style='font-size: 30px;'><strong>Okay</strong></p>","null","neutral_feedback","1","test","19","","","","","","","",""
"","","","","","","","","","","","html-button-response","243","2.0.0","2177728","64e8a63d30b3b5fbf590c6a7","2","13","14125","","","","","","","","","<img src= ""rock_img/I_Pegmatite_16.jpg"" style=""width:8cm; height:5.8cm;""><p>What type of rock is this?</p>","0","class_response","1","test","20","Andesite","Pegmatite","16","false","1","6","",""
"","","","","","","","","","","","html-keyboard-response","244","2.0.0","2178235","64e8a63d30b3b5fbf590c6a7","2","13","null","","","","","","","","","<p style='font-size: 30px;'><strong>Okay</strong></p>","null","neutral_feedback","1","test","20","","","","","","","",""
"","","","","","","","","","","","html-button-response","245","2.0.0","2188164","64e8a63d30b3b5fbf590c6a7","2","13","9926","","","","","","","","","<img src= ""rock_img/I_Andesite_05.jpg"" style=""width:8cm; height:4.12cm;""><p>What type of rock is this?</p>","3","class_response","1","test","21","Gabbro","Andesite","05","false","4","1","",""
"","","","","","","","","","","","html-keyboard-response","246","2.0.0","2188666","64e8a63d30b3b5fbf590c6a7","2","13","null","","","","","","","","","<p style='font-size: 30px;'><strong>Okay</strong></p>","null","neutral_feedback","1","test","21","","","","","","","",""
"","","","","","","","","","","","html-button-response","247","2.0.0","2196913","64e8a63d30b3b5fbf590c6a7","2","13","8245","","","","","","","","","<img src= ""rock_img/I_Gabbro_05.jpg"" style=""width:8cm; height:6cm;""><p>What type of rock is this?</p>","5","class_response","1","test","22","Pegmatite","Gabbro","05","false","6","4","",""
"","","","","","","","","","","","html-keyboard-response","248","2.0.0","2197421","64e8a63d30b3b5fbf590c6a7","2","13","null","","","","","","","","","<p style='font-size: 30px;'><strong>Okay</strong></p>","null","neutral_feedback","1","test","22","","","","","","","",""
"","","","","","","","","","","","html-button-response","249","2.0.0","2205365","64e8a63d30b3b5fbf590c6a7","2","13","7941","","","","","","","","","<img src= ""rock_img/I_Peridotite_15.jpg"" style=""width:8cm; height:6cm;""><p>What type of rock is this?</p>","6","class_response","1","test","23","Peridotite","Peridotite","15","true","7","7","",""
"","","","","","","","","","","","html-keyboard-response","250","2.0.0","2205873","64e8a63d30b3b5fbf590c6a7","2","13","null","","","","","","","","","<p style='font-size: 30px;'><strong>Okay</strong></p>","null","neutral_feedback","1","test","23","","","","","","","",""
"","","","","","","","","","","","html-button-response","251","2.0.0","2216013","64e8a63d30b3b5fbf590c6a7","2","13","10138","","","","","","","","","<img src= ""rock_img/I_Peridotite_10.jpg"" style=""width:8cm; height:5.390000000000001cm;""><p>What type of rock is this?</p>","1","class_response","1","test","24","Basalt","Peridotite","10","false","2","7","",""
"","","","","","","","","","","","html-keyboard-response","252","2.0.0","2216518","64e8a63d30b3b5fbf590c6a7","2","13","null","","","","","","","","","<p style='font-size: 30px;'><strong>Okay</strong></p>","null","neutral_feedback","1","test","24","","","","","","","",""
"","","","","","","","","","","","html-button-response","253","2.0.0","2230903","64e8a63d30b3b5fbf590c6a7","2","13","14382","","","","","","","","","<img src= ""rock_img/I_Basalt_16.jpg"" style=""width:8cm; height:7.659999999999999cm;""><p>What type of rock is this?</p>","6","class_response","1","test","25","Peridotite","Basalt","16","false","7","2","",""
"","","","","","","","","","","","html-keyboard-response","254","2.0.0","2231407","64e8a63d30b3b5fbf590c6a7","2","13","null","","","","","","","","","<p style='font-size: 30px;'><strong>Okay</strong></p>","null","neutral_feedback","1","test","25","","","","","","","",""
"","","","","","","","","","","","html-button-response","255","2.0.0","2238819","64e8a63d30b3b5fbf590c6a7","2","13","7410","","","","","","","","","<img src= ""rock_img/I_Pumice_06.jpg"" style=""width:8cm; height:6.9399999999999995cm;""><p>What type of rock is this?</p>","7","class_response","1","test","26","Pumice","Pumice","06","true","8","8","",""
"","","","","","","","","","","","html-keyboard-response","256","2.0.0","2239329","64e8a63d30b3b5fbf590c6a7","2","13","null","","","","","","","","","<p style='font-size: 30px;'><strong>Okay</strong></p>","null","neutral_feedback","1","test","26","","","","","","","",""
"","","","","","","","","","","","html-button-response","257","2.0.0","2251529","64e8a63d30b3b5fbf590c6a7","2","13","12197","","","","","","","","","<img src= ""rock_img/I_Pegmatite_05.jpg"" style=""width:8cm; height:7.300000000000001cm;""><p>What type of rock is this?</p>","5","class_response","1","test","27","Pegmatite","Pegmatite","05","true","6","6","",""
"","","","","","","","","","","","html-keyboard-response","258","2.0.0","2252030","64e8a63d30b3b5fbf590c6a7","2","13","null","","","","","","","","","<p style='font-size: 30px;'><strong>Okay</strong></p>","null","neutral_feedback","1","test","27","","","","","","","",""
"","","","","","","","","","","","html-button-response","259","2.0.0","2268530","64e8a63d30b3b5fbf590c6a7","2","13","16498","","","","","","","","","<img src= ""rock_img/I_Pegmatite_03.jpg"" style=""width:8cm; height:5.239999999999999cm;""><p>What type of rock is this?</p>","0","class_response","1","test","28","Andesite","Pegmatite","03","false","1","6","",""
"","","","","","","","","","","","html-keyboard-response","260","2.0.0","2269031","64e8a63d30b3b5fbf590c6a7","2","13","null","","","","","","","","","<p style='font-size: 30px;'><strong>Okay</strong></p>","null","neutral_feedback","1","test","28","","","","","","","",""
"","","","","","","","","","","","html-button-response","261","2.0.0","2300187","64e8a63d30b3b5fbf590c6a7","2","13","31155","","","","","","","","","<img src= ""rock_img/I_Pegmatite_09.jpg"" style=""width:8cm; height:4.03cm;""><p>What type of rock is this?</p>","5","class_response","1","test","29","Pegmatite","Pegmatite","09","true","6","6","",""
"","","","","","","","","","","","html-keyboard-response","262","2.0.0","2300689","64e8a63d30b3b5fbf590c6a7","2","13","null","","","","","","","","","<p style='font-size: 30px;'><strong>Okay</strong></p>","null","neutral_feedback","1","test","29","","","","","","","",""
"","","","","","","","","","","","html-button-response","263","2.0.0","2319181","64e8a63d30b3b5fbf590c6a7","2","13","18489","","","","","","","","","<img src= ""rock_img/I_Andesite_11.jpg"" style=""width:8cm; height:4.92cm;""><p>What type of rock is this?</p>","3","class_response","1","test","30","Gabbro","Andesite","11","false","4","1","",""
"","","","","","","","","","","","html-keyboard-response","264","2.0.0","2319685","64e8a63d30b3b5fbf590c6a7","2","13","null","","","","","","","","","<p style='font-size: 30px;'><strong>Okay</strong></p>","null","neutral_feedback","1","test","30","","","","","","","",""
"","","","","","","","","","","","html-button-response","265","2.0.0","2328828","64e8a63d30b3b5fbf590c6a7","2","13","9140","","","","","","","","","<img src= ""rock_img/I_Obsidian_10.jpg"" style=""width:8cm; height:6.260000000000001cm;""><p>What type of rock is this?</p>","4","class_response","1","test","31","Obsidian","Obsidian","10","true","5","5","",""
"","","","","","","","","","","","html-keyboard-response","266","2.0.0","2329330","64e8a63d30b3b5fbf590c6a7","2","13","null","","","","","","","","","<p style='font-size: 30px;'><strong>Okay</strong></p>","null","neutral_feedback","1","test","31","","","","","","","",""
"","","","","","","","","","","","html-button-response","267","2.0.0","2342271","64e8a63d30b3b5fbf590c6a7","2","13","12940","","","","","","","","","<img src= ""rock_img/I_Gabbro_12.jpg"" style=""width:8cm; height:7.800000000000001cm;""><p>What type of rock is this?</p>","3","class_response","1","test","32","Gabbro","Gabbro","12","true","4","4","",""
"","","","","","","","","","","","html-keyboard-response","268","2.0.0","2342773","64e8a63d30b3b5fbf590c6a7","2","13","null","","","","","","","","","<p style='font-size: 30px;'><strong>Okay</strong></p>","null","neutral_feedback","1","test","32","","","","","","","",""
"","","","","","","","","","","","html-button-response","269","2.0.0","2350363","64e8a63d30b3b5fbf590c6a7","2","13","7587","","","","","","","","","<img src= ""rock_img/I_Obsidian_02.jpg"" style=""width:8cm; height:7.51cm;""><p>What type of rock is this?</p>","4","class_response","1","test","33","Obsidian","Obsidian","02","true","5","5","",""
"","","","","","","","","","","","html-keyboard-response","270","2.0.0","2350864","64e8a63d30b3b5fbf590c6a7","2","13","null","","","","","","","","","<p style='font-size: 30px;'><strong>Okay</strong></p>","null","neutral_feedback","1","test","33","","","","","","","",""
"","","","","","","","","","","","html-button-response","271","2.0.0","2358023","64e8a63d30b3b5fbf590c6a7","2","13","7157","","","","","","","","","<img src= ""rock_img/I_Andesite_16.jpg"" style=""width:8cm; height:6.010000000000001cm;""><p>What type of rock is this?</p>","0","class_response","1","test","34","Andesite","Andesite","16","true","1","1","",""
"","","","","","","","","","","","html-keyboard-response","272","2.0.0","2358525","64e8a63d30b3b5fbf590c6a7","2","13","null","","","","","","","","","<p style='font-size: 30px;'><strong>Okay</strong></p>","null","neutral_feedback","1","test","34","","","","","","","",""
"","","","","","","","","","","","html-button-response","273","2.0.0","2374338","64e8a63d30b3b5fbf590c6a7","2","13","15811","","","","","","","","","<img src= ""rock_img/I_Andesite_03.jpg"" style=""width:8cm; height:5.73cm;""><p>What type of rock is this?</p>","0","class_response","1","test","35","Andesite","Andesite","03","true","1","1","",""
"","","","","","","","","","","","html-keyboard-response","274","2.0.0","2374839","64e8a63d30b3b5fbf590c6a7","2","13","null","","","","","","","","","<p style='font-size: 30px;'><strong>Okay</strong></p>","null","neutral_feedback","1","test","35","","","","","","","",""
"","","","","","","","","","","","html-button-response","275","2.0.0","2385999","64e8a63d30b3b5fbf590c6a7","2","13","11158","","","","","","","","","<img src= ""rock_img/I_Pumice_15.jpg"" style=""width:8cm; height:7.86cm;""><p>What type of rock is this?</p>","7","class_response","1","test","36","Pumice","Pumice","15","true","8","8","",""
"","","","","","","","","","","","html-keyboard-response","276","2.0.0","2386503","64e8a63d30b3b5fbf590c6a7","2","13","null","","","","","","","","","<p style='font-size: 30px;'><strong>Okay</strong></p>","null","neutral_feedback","1","test","36","","","","","","","",""
"","","","","","","","","","","","html-button-response","277","2.0.0","2396782","64e8a63d30b3b5fbf590c6a7","2","13","10278","","","","","","","","","<img src= ""rock_img/I_Obsidian_12.jpg"" style=""width:8cm; height:6.53cm;""><p>What type of rock is this?</p>","4","class_response","1","test","37","Obsidian","Obsidian","12","true","5","5","",""
"","","","","","","","","","","","html-keyboard-response","278","2.0.0","2397286","64e8a63d30b3b5fbf590c6a7","2","13","null","","","","","","","","","<p style='font-size: 30px;'><strong>Okay</strong></p>","null","neutral_feedback","1","test","37","","","","","","","",""
"","","","","","","","","","","","html-button-response","279","2.0.0","2405169","64e8a63d30b3b5fbf590c6a7","2","13","7881","","","","","","","","","<img src= ""rock_img/I_Obsidian_05.jpg"" style=""width:8cm; height:6.33cm;""><p>What type of rock is this?</p>","4","class_response","1","test","38","Obsidian","Obsidian","05","true","5","5","",""
"","","","","","","","","","","","html-keyboard-response","280","2.0.0","2405672","64e8a63d30b3b5fbf590c6a7","2","13","null","","","","","","","","","<p style='font-size: 30px;'><strong>Okay</strong></p>","null","neutral_feedback","1","test","38","","","","","","","",""
"","","","","","","","","","","","html-button-response","281","2.0.0","2412682","64e8a63d30b3b5fbf590c6a7","2","13","7008","","","","","","","","","<img src= ""rock_img/I_Diorite_16.jpg"" style=""width:8cm; height:6.74cm;""><p>What type of rock is this?</p>","2","class_response","1","test","39","Diorite","Diorite","16","true","3","3","",""
"","","","","","","","","","","","html-keyboard-response","282","2.0.0","2413184","64e8a63d30b3b5fbf590c6a7","2","13","null","","","","","","","","","<p style='font-size: 30px;'><strong>Okay</strong></p>","null","neutral_feedback","1","test","39","","","","","","","",""
"","","","","","","","","","","","html-button-response","283","2.0.0","2433172","64e8a63d30b3b5fbf590c6a7","2","13","19986","","","","","","","","","<img src= ""rock_img/I_Diorite_06.jpg"" style=""width:8cm; height:6.03cm;""><p>What type of rock is this?</p>","0","class_response","1","test","40","Andesite","Diorite","06","false","1","3","",""
"","","","","","","","","","","","html-keyboard-response","284","2.0.0","2433674","64e8a63d30b3b5fbf590c6a7","2","13","null","","","","","","","","","<p style='font-size: 30px;'><strong>Okay</strong></p>","null","neutral_feedback","1","test","40","","","","","","","",""
"","","","","","","","","","","","html-button-response","285","2.0.0","2435793","64e8a63d30b3b5fbf590c6a7","2","13","2117","","","","","","","","","<img src= ""rock_img/I_Pumice_05.jpg"" style=""width:8cm; height:7.25cm;""><p>What type of rock is this?</p>","7","class_response","1","test","41","Pumice","Pumice","05","true","8","8","",""
"","","","","","","","","","","","html-keyboard-response","286","2.0.0","2436300","64e8a63d30b3b5fbf590c6a7","2","13","null","","","","","","","","","<p style='font-size: 30px;'><strong>Okay</strong></p>","null","neutral_feedback","1","test","41","","","","","","","",""
"","","","","","","","","","","","html-button-response","287","2.0.0","2438659","64e8a63d30b3b5fbf590c6a7","2","13","2356","","","","","","","","","<img src= ""rock_img/I_Pumice_16.jpg"" style=""width:8cm; height:6.79cm;""><p>What type of rock is this?</p>","1","class_response","1","test","42","Basalt","Pumice","16","false","2","8","",""
"","","","","","","","","","","","html-keyboard-response","288","2.0.0","2439161","64e8a63d30b3b5fbf590c6a7","2","13","null","","","","","","","","","<p style='font-size: 30px;'><strong>Okay</strong></p>","null","neutral_feedback","1","test","42","","","","","","","",""
"","","","","","","","","","","","html-button-response","289","2.0.0","2447061","64e8a63d30b3b5fbf590c6a7","2","13","7898","","","","","","","","","<img src= ""rock_img/I_Peridotite_16.jpg"" style=""width:8cm; height:6.989999999999999cm;""><p>What type of rock is this?</p>","2","class_response","1","test","43","Diorite","Peridotite","16","false","3","7","",""
"","","","","","","","","","","","html-keyboard-response","290","2.0.0","2447574","64e8a63d30b3b5fbf590c6a7","2","13","null","","","","","","","","","<p style='font-size: 30px;'><strong>Okay</strong></p>","null","neutral_feedback","1","test","43","","","","","","","",""
"","","","","","","","","","","","html-button-response","291","2.0.0","2455080","64e8a63d30b3b5fbf590c6a7","2","13","7504","","","","","","","","","<img src= ""rock_img/I_Basalt_10.jpg"" style=""width:8cm; height:5.85cm;""><p>What type of rock is this?</p>","5","class_response","1","test","44","Pegmatite","Basalt","10","false","6","2","",""
"","","","","","","","","","","","html-keyboard-response","292","2.0.0","2455585","64e8a63d30b3b5fbf590c6a7","2","13","null","","","","","","","","","<p style='font-size: 30px;'><strong>Okay</strong></p>","null","neutral_feedback","1","test","44","","","","","","","",""
"","","","","","","","","","","","html-button-response","293","2.0.0","2462812","64e8a63d30b3b5fbf590c6a7","2","13","7225","","","","","","","","","<img src= ""rock_img/I_Pegmatite_13.jpg"" style=""width:8cm; height:4.95cm;""><p>What type of rock is this?</p>","5","class_response","1","test","45","Pegmatite","Pegmatite","13","true","6","6","",""
"","","","","","","","","","","","html-keyboard-response","294","2.0.0","2463313","64e8a63d30b3b5fbf590c6a7","2","13","null","","","","","","","","","<p style='font-size: 30px;'><strong>Okay</strong></p>","null","neutral_feedback","1","test","45","","","","","","","",""
"","","","","","","","","","","","html-button-response","295","2.0.0","2470340","64e8a63d30b3b5fbf590c6a7","2","13","7026","","","","","","","","","<img src= ""rock_img/I_Diorite_14.jpg"" style=""width:8cm; height:5.71cm;""><p>What type of rock is this?</p>","2","class_response","1","test","46","Diorite","Diorite","14","true","3","3","",""
"","","","","","","","","","","","html-keyboard-response","296","2.0.0","2470842","64e8a63d30b3b5fbf590c6a7","2","13","null","","","","","","","","","<p style='font-size: 30px;'><strong>Okay</strong></p>","null","neutral_feedback","1","test","46","","","","","","","",""
"","","","","","","","","","","","html-button-response","297","2.0.0","2478245","64e8a63d30b3b5fbf590c6a7","2","13","7401","","","","","","","","","<img src= ""rock_img/I_Basalt_06.jpg"" style=""width:8cm; height:7.06cm;""><p>What type of rock is this?</p>","1","class_response","1","test","47","Basalt","Basalt","06","true","2","2","",""
"","","","","","","","","","","","html-keyboard-response","298","2.0.0","2478754","64e8a63d30b3b5fbf590c6a7","2","13","null","","","","","","","","","<p style='font-size: 30px;'><strong>Okay</strong></p>","null","neutral_feedback","1","test","47","","","","","","","",""
"","","","","","","","","","","","html-button-response","299","2.0.0","2488222","64e8a63d30b3b5fbf590c6a7","2","13","9465","","","","","","","","","<img src= ""rock_img/I_Basalt_09.jpg"" style=""width:8cm; height:6.2cm;""><p>What type of rock is this?</p>","1","class_response","1","test","48","Basalt","Basalt","09","true","2","2","",""
"","","","","","","","","","","","html-keyboard-response","300","2.0.0","2488723","64e8a63d30b3b5fbf590c6a7","2","13","null","","","","","","","","","<p style='font-size: 30px;'><strong>Okay</strong></p>","null","neutral_feedback","1","test","48","","","","","","","",""
"","","","","","","","","","","","html-button-response","301","2.0.0","2501434","64e8a63d30b3b5fbf590c6a7","2","13","","","","","","","","","","","","cycle_feedback","","","","","","","","","","4959.900000095367","7745.400000095367"
"","","","","","","","","","","","html-button-response","303","2.0.0","2505633","64e8a63d30b3b5fbf590c6a7","2","13","4197","","","","","","","","","","0","start_train","","","","","","","","","","",""
