"width","height","webaudio","browser","browser_version","mobile","os","fullscreen","vsync_rate","webcam","microphone","trial_type","trial_index","plugin_version","time_elapsed","subjID","condition","stimID","rt","url","success","value","timeout","failed_images","failed_audio","failed_video","view_history","stimulus","response","trialType","cycle","phase","trial","resp","cat","token","corr","resp_num","cat_num"
"1925","885","true","chrome","126.0.0","false","Windows 10","true","65.31","true","true","browser-check","0","2.0.0","929","66fc0d1538357d2081dda6b9","3","38","","","","","","","","","","","","","","","","","","","","",""
"","","","","","","","","","","","external-html","1","2.0.0","5953","66fc0d1538357d2081dda6b9","3","38","4941","consent_form.html","","","","","","","","","","","","","","","","","","",""
"","","","","","","","","","","","fullscreen","2","2.0.0","8599","66fc0d1538357d2081dda6b9","3","38","1627","","true","","","","","","","","","","","","","","","","","",""
"","","","","","","","","","","","call-function","3","2.0.0","8602","66fc0d1538357d2081dda6b9","3","38","","","","{}","","","","","","","","","","","","","","","","",""
"","","","","","","","","","","","preload","4","2.0.0","10833","66fc0d1538357d2081dda6b9","3","38","","","true","","false","[]","[]","[]","","","","","","","","","","","","",""
"","","","","","","","","","","","instructions","5","2.0.0","46008","66fc0d1538357d2081dda6b9","3","38","35173","","","","","","","","[{""page_index"":0,""viewing_time"":6880},{""page_index"":1,""viewing_time"":22656},{""page_index"":2,""viewing_time"":5637}]","","","","","","","","","","","",""
"","","","","","","","","","","","html-button-response","6","2.0.0","48491","66fc0d1538357d2081dda6b9","3","38","2481","","","","","","","","","","0","start_test","","","","","","","","",""
"","","","","","","","","","","","html-button-response","7","2.0.0","53815","66fc0d1538357d2081dda6b9","3","38","5322","","","","","","","","","<img src= ""rock_img/I_Pumice_04.jpg"" style=""width:8cm; height:6.819999999999999cm;""><p>What type of rock is this?</p>","1","class_response","0","test","1","Basalt","Pumice","04","false","2","8"
"","","","","","","","","","","","html-keyboard-response","8","2.0.0","54326","66fc0d1538357d2081dda6b9","3","38","null","","","","","","","","","<p style='font-size: 30px;'><strong>Okay</strong></p>","null","neutral_feedback","0","test","1","","","","","",""
"","","","","","","","","","","","html-button-response","9","2.0.0","56463","66fc0d1538357d2081dda6b9","3","38","2134","","","","","","","","","<img src= ""rock_img/I_Peridotite_06.jpg"" style=""width:8cm; height:7.53cm;""><p>What type of rock is this?</p>","2","class_response","0","test","2","Diorite","Peridotite","06","false","3","7"
"","","","","","","","","","","","html-keyboard-response","10","2.0.0","56972","66fc0d1538357d2081dda6b9","3","38","null","","","","","","","","","<p style='font-size: 30px;'><strong>Okay</strong></p>","null","neutral_feedback","0","test","2","","","","","",""
"","","","","","","","","","","","html-button-response","11","2.0.0","58232","66fc0d1538357d2081dda6b9","3","38","1257","","","","","","","","","<img src= ""rock_img/I_Pegmatite_07.jpg"" style=""width:8cm; height:6.7cm;""><p>What type of rock is this?</p>","5","class_response","0","test","3","Pegmatite","Pegmatite","07","true","6","6"
"","","","","","","","","","","","html-keyboard-response","12","2.0.0","58747","66fc0d1538357d2081dda6b9","3","38","null","","","","","","","","","<p style='font-size: 30px;'><strong>Okay</strong></p>","null","neutral_feedback","0","test","3","","","","","",""
"","","","","","","","","","","","html-button-response","13","2.0.0","65096","66fc0d1538357d2081dda6b9","3","38","6347","","","","","","","","","<img src= ""rock_img/I_Diorite_09.jpg"" style=""width:8cm; height:5.27cm;""><p>What type of rock is this?</p>","0","class_response","0","test","4","Andesite","Diorite","09","false","1","3"
"","","","","","","","","","","","html-keyboard-response","14","2.0.0","65598","66fc0d1538357d2081dda6b9","3","38","null","","","","","","","","","<p style='font-size: 30px;'><strong>Okay</strong></p>","null","neutral_feedback","0","test","4","","","","","",""
"","","","","","","","","","","","html-button-response","15","2.0.0","67016","66fc0d1538357d2081dda6b9","3","38","1416","","","","","","","","","<img src= ""rock_img/I_Andesite_10.jpg"" style=""width:8cm; height:4.16cm;""><p>What type of rock is this?</p>","3","class_response","0","test","5","Gabbro","Andesite","10","false","4","1"
"","","","","","","","","","","","html-keyboard-response","16","2.0.0","67518","66fc0d1538357d2081dda6b9","3","38","null","","","","","","","","","<p style='font-size: 30px;'><strong>Okay</strong></p>","null","neutral_feedback","0","test","5","","","","","",""
"","","","","","","","","","","","html-button-response","17","2.0.0","69162","66fc0d1538357d2081dda6b9","3","38","1642","","","","","","","","","<img src= ""rock_img/I_Basalt_12.jpg"" style=""width:8cm; height:6.010000000000001cm;""><p>What type of rock is this?</p>","7","class_response","0","test","6","Pumice","Basalt","12","false","8","2"
"","","","","","","","","","","","html-keyboard-response","18","2.0.0","69677","66fc0d1538357d2081dda6b9","3","38","null","","","","","","","","","<p style='font-size: 30px;'><strong>Okay</strong></p>","null","neutral_feedback","0","test","6","","","","","",""
"","","","","","","","","","","","html-button-response","19","2.0.0","71615","66fc0d1538357d2081dda6b9","3","38","1935","","","","","","","","","<img src= ""rock_img/I_Obsidian_08.jpg"" style=""width:8cm; height:7.39cm;""><p>What type of rock is this?</p>","6","class_response","0","test","7","Peridotite","Obsidian","08","false","7","5"
"","","","","","","","","","","","html-keyboard-response","20","2.0.0","72127","66fc0d1538357d2081dda6b9","3","38","null","","","","","","","","","<p style='font-size: 30px;'><strong>Okay</strong></p>","null","neutral_feedback","0","test","7","","","","","",""
"","","","","","","","","","","","html-button-response","21","2.0.0","73336","66fc0d1538357d2081dda6b9","3","38","1206","","","","","","","","","<img src= ""rock_img/I_Pegmatite_08.jpg"" style=""width:8cm; height:7.68cm;""><p>What type of rock is this?</p>","5","class_response","0","test","8","Pegmatite","Pegmatite","08","true","6","6"
"","","","","","","","","","","","html-keyboard-response","22","2.0.0","73840","66fc0d1538357d2081dda6b9","3","38","null","","","","","","","","","<p style='font-size: 30px;'><strong>Okay</strong></p>","null","neutral_feedback","0","test","8","","","","","",""
"","","","","","","","","","","","html-button-response","23","2.0.0","75621","66fc0d1538357d2081dda6b9","3","38","1779","","","","","","","","","<img src= ""rock_img/I_Pumice_10.jpg"" style=""width:8cm; height:7.609999999999999cm;""><p>What type of rock is this?</p>","7","class_response","0","test","9","Pumice","Pumice","10","true","8","8"
"","","","","","","","","","","","html-keyboard-response","24","2.0.0","76138","66fc0d1538357d2081dda6b9","3","38","null","","","","","","","","","<p style='font-size: 30px;'><strong>Okay</strong></p>","null","neutral_feedback","0","test","9","","","","","",""
"","","","","","","","","","","","html-button-response","25","2.0.0","78855","66fc0d1538357d2081dda6b9","3","38","2716","","","","","","","","","<img src= ""rock_img/I_Basalt_14.jpg"" style=""width:8cm; height:5.82cm;""><p>What type of rock is this?</p>","2","class_response","0","test","10","Diorite","Basalt","14","false","3","2"
"","","","","","","","","","","","html-keyboard-response","26","2.0.0","79362","66fc0d1538357d2081dda6b9","3","38","null","","","","","","","","","<p style='font-size: 30px;'><strong>Okay</strong></p>","null","neutral_feedback","0","test","10","","","","","",""
"","","","","","","","","","","","html-button-response","27","2.0.0","80192","66fc0d1538357d2081dda6b9","3","38","828","","","","","","","","","<img src= ""rock_img/I_Obsidian_14.jpg"" style=""width:8cm; height:7.64cm;""><p>What type of rock is this?</p>","1","class_response","0","test","11","Basalt","Obsidian","14","false","2","5"
"","","","","","","","","","","","html-keyboard-response","28","2.0.0","80701","66fc0d1538357d2081dda6b9","3","38","null","","","","","","","","","<p style='font-size: 30px;'><strong>Okay</strong></p>","null","neutral_feedback","0","test","11","","","","","",""
"","","","","","","","","","","","html-button-response","29","2.0.0","82527","66fc0d1538357d2081dda6b9","3","38","1823","","","","","","","","","<img src= ""rock_img/I_Gabbro_11.jpg"" style=""width:8cm; height:6.2cm;""><p>What type of rock is this?</p>","0","class_response","0","test","12","Andesite","Gabbro","11","false","1","4"
"","","","","","","","","","","","html-keyboard-response","30","2.0.0","83040","66fc0d1538357d2081dda6b9","3","38","null","","","","","","","","","<p style='font-size: 30px;'><strong>Okay</strong></p>","null","neutral_feedback","0","test","12","","","","","",""
"","","","","","","","","","","","html-button-response","31","2.0.0","84250","66fc0d1538357d2081dda6b9","3","38","1208","","","","","","","","","<img src= ""rock_img/I_Pumice_06.jpg"" style=""width:8cm; height:6.9399999999999995cm;""><p>What type of rock is this?</p>","4","class_response","0","test","13","Obsidian","Pumice","06","false","5","8"
"","","","","","","","","","","","html-keyboard-response","32","2.0.0","84752","66fc0d1538357d2081dda6b9","3","38","null","","","","","","","","","<p style='font-size: 30px;'><strong>Okay</strong></p>","null","neutral_feedback","0","test","13","","","","","",""
"","","","","","","","","","","","html-button-response","33","2.0.0","85420","66fc0d1538357d2081dda6b9","3","38","667","","","","","","","","","<img src= ""rock_img/I_Basalt_06.jpg"" style=""width:8cm; height:7.06cm;""><p>What type of rock is this?</p>","5","class_response","0","test","14","Pegmatite","Basalt","06","false","6","2"
"","","","","","","","","","","","html-keyboard-response","34","2.0.0","85922","66fc0d1538357d2081dda6b9","3","38","null","","","","","","","","","<p style='font-size: 30px;'><strong>Okay</strong></p>","null","neutral_feedback","0","test","14","","","","","",""
"","","","","","","","","","","","html-button-response","35","2.0.0","86930","66fc0d1538357d2081dda6b9","3","38","1006","","","","","","","","","<img src= ""rock_img/I_Peridotite_14.jpg"" style=""width:8cm; height:5.3cm;""><p>What type of rock is this?</p>","6","class_response","0","test","15","Peridotite","Peridotite","14","true","7","7"
"","","","","","","","","","","","html-keyboard-response","36","2.0.0","87436","66fc0d1538357d2081dda6b9","3","38","null","","","","","","","","","<p style='font-size: 30px;'><strong>Okay</strong></p>","null","neutral_feedback","0","test","15","","","","","",""
"","","","","","","","","","","","html-button-response","37","2.0.0","89007","66fc0d1538357d2081dda6b9","3","38","1570","","","","","","","","","<img src= ""rock_img/I_Pumice_15.jpg"" style=""width:8cm; height:7.86cm;""><p>What type of rock is this?</p>","3","class_response","0","test","16","Gabbro","Pumice","15","false","4","8"
"","","","","","","","","","","","html-keyboard-response","38","2.0.0","89518","66fc0d1538357d2081dda6b9","3","38","null","","","","","","","","","<p style='font-size: 30px;'><strong>Okay</strong></p>","null","neutral_feedback","0","test","16","","","","","",""
"","","","","","","","","","","","html-button-response","39","2.0.0","91412","66fc0d1538357d2081dda6b9","3","38","1892","","","","","","","","","<img src= ""rock_img/I_Andesite_14.jpg"" style=""width:8cm; height:5.449999999999999cm;""><p>What type of rock is this?</p>","7","class_response","0","test","17","Pumice","Andesite","14","false","8","1"
"","","","","","","","","","","","html-keyboard-response","40","2.0.0","91927","66fc0d1538357d2081dda6b9","3","38","null","","","","","","","","","<p style='font-size: 30px;'><strong>Okay</strong></p>","null","neutral_feedback","0","test","17","","","","","",""
"","","","","","","","","","","","html-button-response","41","2.0.0","93688","66fc0d1538357d2081dda6b9","3","38","1759","","","","","","","","","<img src= ""rock_img/I_Gabbro_14.jpg"" style=""width:8cm; height:8.48cm;""><p>What type of rock is this?</p>","2","class_response","0","test","18","Diorite","Gabbro","14","false","3","4"
"","","","","","","","","","","","html-keyboard-response","42","2.0.0","94190","66fc0d1538357d2081dda6b9","3","38","null","","","","","","","","","<p style='font-size: 30px;'><strong>Okay</strong></p>","null","neutral_feedback","0","test","18","","","","","",""
"","","","","","","","","","","","html-button-response","43","2.0.0","95192","66fc0d1538357d2081dda6b9","3","38","1000","","","","","","","","","<img src= ""rock_img/I_Pumice_13.jpg"" style=""width:8cm; height:8.200000000000001cm;""><p>What type of rock is this?</p>","1","class_response","0","test","19","Basalt","Pumice","13","false","2","8"
"","","","","","","","","","","","html-keyboard-response","44","2.0.0","95694","66fc0d1538357d2081dda6b9","3","38","null","","","","","","","","","<p style='font-size: 30px;'><strong>Okay</strong></p>","null","neutral_feedback","0","test","19","","","","","",""
"","","","","","","","","","","","html-button-response","45","2.0.0","96755","66fc0d1538357d2081dda6b9","3","38","1058","","","","","","","","","<img src= ""rock_img/I_Obsidian_04.jpg"" style=""width:8cm; height:6.930000000000001cm;""><p>What type of rock is this?</p>","5","class_response","0","test","20","Pegmatite","Obsidian","04","false","6","5"
"","","","","","","","","","","","html-keyboard-response","46","2.0.0","97271","66fc0d1538357d2081dda6b9","3","38","null","","","","","","","","","<p style='font-size: 30px;'><strong>Okay</strong></p>","null","neutral_feedback","0","test","20","","","","","",""
"","","","","","","","","","","","html-button-response","47","2.0.0","98941","66fc0d1538357d2081dda6b9","3","38","1668","","","","","","","","","<img src= ""rock_img/I_Diorite_14.jpg"" style=""width:8cm; height:5.71cm;""><p>What type of rock is this?</p>","0","class_response","0","test","21","Andesite","Diorite","14","false","1","3"
"","","","","","","","","","","","html-keyboard-response","48","2.0.0","99447","66fc0d1538357d2081dda6b9","3","38","null","","","","","","","","","<p style='font-size: 30px;'><strong>Okay</strong></p>","null","neutral_feedback","0","test","21","","","","","",""
"","","","","","","","","","","","html-button-response","49","2.0.0","100465","66fc0d1538357d2081dda6b9","3","38","1016","","","","","","","","","<img src= ""rock_img/I_Andesite_04.jpg"" style=""width:8cm; height:5.96cm;""><p>What type of rock is this?</p>","4","class_response","0","test","22","Obsidian","Andesite","04","false","5","1"
"","","","","","","","","","","","html-keyboard-response","50","2.0.0","100980","66fc0d1538357d2081dda6b9","3","38","null","","","","","","","","","<p style='font-size: 30px;'><strong>Okay</strong></p>","null","neutral_feedback","0","test","22","","","","","",""
"","","","","","","","","","","","html-button-response","51","2.0.0","102652","66fc0d1538357d2081dda6b9","3","38","1669","","","","","","","","","<img src= ""rock_img/I_Pumice_09.jpg"" style=""width:8cm; height:6.44cm;""><p>What type of rock is this?</p>","7","class_response","0","test","23","Pumice","Pumice","09","true","8","8"
"","","","","","","","","","","","html-keyboard-response","52","2.0.0","103159","66fc0d1538357d2081dda6b9","3","38","null","","","","","","","","","<p style='font-size: 30px;'><strong>Okay</strong></p>","null","neutral_feedback","0","test","23","","","","","",""
"","","","","","","","","","","","html-button-response","53","2.0.0","104868","66fc0d1538357d2081dda6b9","3","38","1707","","","","","","","","","<img src= ""rock_img/I_Andesite_11.jpg"" style=""width:8cm; height:4.92cm;""><p>What type of rock is this?</p>","3","class_response","0","test","24","Gabbro","Andesite","11","false","4","1"
"","","","","","","","","","","","html-keyboard-response","54","2.0.0","105381","66fc0d1538357d2081dda6b9","3","38","null","","","","","","","","","<p style='font-size: 30px;'><strong>Okay</strong></p>","null","neutral_feedback","0","test","24","","","","","",""
"","","","","","","","","","","","html-button-response","55","2.0.0","106144","66fc0d1538357d2081dda6b9","3","38","760","","","","","","","","","<img src= ""rock_img/I_Andesite_09.jpg"" style=""width:8cm; height:6cm;""><p>What type of rock is this?</p>","2","class_response","0","test","25","Diorite","Andesite","09","false","3","1"
"","","","","","","","","","","","html-keyboard-response","56","2.0.0","106649","66fc0d1538357d2081dda6b9","3","38","null","","","","","","","","","<p style='font-size: 30px;'><strong>Okay</strong></p>","null","neutral_feedback","0","test","25","","","","","",""
"","","","","","","","","","","","html-button-response","57","2.0.0","107568","66fc0d1538357d2081dda6b9","3","38","917","","","","","","","","","<img src= ""rock_img/I_Obsidian_09.jpg"" style=""width:8cm; height:5cm;""><p>What type of rock is this?</p>","6","class_response","0","test","26","Peridotite","Obsidian","09","false","7","5"
"","","","","","","","","","","","html-keyboard-response","58","2.0.0","108070","66fc0d1538357d2081dda6b9","3","38","null","","","","","","","","","<p style='font-size: 30px;'><strong>Okay</strong></p>","null","neutral_feedback","0","test","26","","","","","",""
"","","","","","","","","","","","html-button-response","59","2.0.0","109022","66fc0d1538357d2081dda6b9","3","38","950","","","","","","","","","<img src= ""rock_img/I_Diorite_06.jpg"" style=""width:8cm; height:6.03cm;""><p>What type of rock is this?</p>","5","class_response","0","test","27","Pegmatite","Diorite","06","false","6","3"
"","","","","","","","","","","","html-keyboard-response","60","2.0.0","109527","66fc0d1538357d2081dda6b9","3","38","null","","","","","","","","","<p style='font-size: 30px;'><strong>Okay</strong></p>","null","neutral_feedback","0","test","27","","","","","",""
"","","","","","","","","","","","html-button-response","61","2.0.0","110348","66fc0d1538357d2081dda6b9","3","38","819","","","","","","","","","<img src= ""rock_img/I_Peridotite_16.jpg"" style=""width:8cm; height:6.989999999999999cm;""><p>What type of rock is this?</p>","1","class_response","0","test","28","Basalt","Peridotite","16","false","2","7"
"","","","","","","","","","","","html-keyboard-response","62","2.0.0","110861","66fc0d1538357d2081dda6b9","3","38","null","","","","","","","","","<p style='font-size: 30px;'><strong>Okay</strong></p>","null","neutral_feedback","0","test","28","","","","","",""
"","","","","","","","","","","","html-button-response","63","2.0.0","111831","66fc0d1538357d2081dda6b9","3","38","968","","","","","","","","","<img src= ""rock_img/I_Obsidian_06.jpg"" style=""width:8cm; height:6.8cm;""><p>What type of rock is this?</p>","0","class_response","0","test","29","Andesite","Obsidian","06","false","1","5"
"","","","","","","","","","","","html-keyboard-response","64","2.0.0","112338","66fc0d1538357d2081dda6b9","3","38","null","","","","","","","","","<p style='font-size: 30px;'><strong>Okay</strong></p>","null","neutral_feedback","0","test","29","","","","","",""
"","","","","","","","","","","","html-button-response","65","2.0.0","113018","66fc0d1538357d2081dda6b9","3","38","677","","","","","","","","","<img src= ""rock_img/I_Peridotite_04.jpg"" style=""width:8cm; height:6.680000000000001cm;""><p>What type of rock is this?</p>","4","class_response","0","test","30","Obsidian","Peridotite","04","false","5","7"
"","","","","","","","","","","","html-keyboard-response","66","2.0.0","113520","66fc0d1538357d2081dda6b9","3","38","null","","","","","","","","","<p style='font-size: 30px;'><strong>Okay</strong></p>","null","neutral_feedback","0","test","30","","","","","",""
"","","","","","","","","","","","html-button-response","67","2.0.0","114778","66fc0d1538357d2081dda6b9","3","38","1257","","","","","","","","","<img src= ""rock_img/I_Gabbro_05.jpg"" style=""width:8cm; height:6cm;""><p>What type of rock is this?</p>","5","class_response","0","test","31","Pegmatite","Gabbro","05","false","6","4"
"","","","","","","","","","","","html-keyboard-response","68","2.0.0","115283","66fc0d1538357d2081dda6b9","3","38","null","","","","","","","","","<p style='font-size: 30px;'><strong>Okay</strong></p>","null","neutral_feedback","0","test","31","","","","","",""
"","","","","","","","","","","","html-button-response","69","2.0.0","115936","66fc0d1538357d2081dda6b9","3","38","652","","","","","","","","","<img src= ""rock_img/I_Diorite_02.jpg"" style=""width:8cm; height:6.27cm;""><p>What type of rock is this?</p>","1","class_response","0","test","32","Basalt","Diorite","02","false","2","3"
"","","","","","","","","","","","html-keyboard-response","70","2.0.0","116438","66fc0d1538357d2081dda6b9","3","38","null","","","","","","","","","<p style='font-size: 30px;'><strong>Okay</strong></p>","null","neutral_feedback","0","test","32","","","","","",""
"","","","","","","","","","","","html-button-response","71","2.0.0","117766","66fc0d1538357d2081dda6b9","3","38","1326","","","","","","","","","<img src= ""rock_img/I_Pegmatite_06.jpg"" style=""width:8cm; height:5.17cm;""><p>What type of rock is this?</p>","2","class_response","0","test","33","Diorite","Pegmatite","06","false","3","6"
"","","","","","","","","","","","html-keyboard-response","72","2.0.0","118275","66fc0d1538357d2081dda6b9","3","38","null","","","","","","","","","<p style='font-size: 30px;'><strong>Okay</strong></p>","null","neutral_feedback","0","test","33","","","","","",""
"","","","","","","","","","","","html-button-response","73","2.0.0","118992","66fc0d1538357d2081dda6b9","3","38","715","","","","","","","","","<img src= ""rock_img/I_Peridotite_02.jpg"" style=""width:8cm; height:5.859999999999999cm;""><p>What type of rock is this?</p>","1","class_response","0","test","34","Basalt","Peridotite","02","false","2","7"
"","","","","","","","","","","","html-keyboard-response","74","2.0.0","119501","66fc0d1538357d2081dda6b9","3","38","null","","","","","","","","","<p style='font-size: 30px;'><strong>Okay</strong></p>","null","neutral_feedback","0","test","34","","","","","",""
"","","","","","","","","","","","html-button-response","75","2.0.0","120401","66fc0d1538357d2081dda6b9","3","38","898","","","","","","","","","<img src= ""rock_img/I_Obsidian_16.jpg"" style=""width:8cm; height:9.3cm;""><p>What type of rock is this?</p>","1","class_response","0","test","35","Basalt","Obsidian","16","false","2","5"
"","","","","","","","","","","","html-keyboard-response","76","2.0.0","120909","66fc0d1538357d2081dda6b9","3","38","null","","","","","","","","","<p style='font-size: 30px;'><strong>Okay</strong></p>","null","neutral_feedback","0","test","35","","","","","",""
"","","","","","","","","","","","html-button-response","77","2.0.0","121999","66fc0d1538357d2081dda6b9","3","38","1088","","","","","","","","","<img src= ""rock_img/I_Pegmatite_13.jpg"" style=""width:8cm; height:4.95cm;""><p>What type of rock is this?</p>","5","class_response","0","test","36","Pegmatite","Pegmatite","13","true","6","6"
"","","","","","","","","","","","html-keyboard-response","78","2.0.0","122500","66fc0d1538357d2081dda6b9","3","38","null","","","","","","","","","<p style='font-size: 30px;'><strong>Okay</strong></p>","null","neutral_feedback","0","test","36","","","","","",""
"","","","","","","","","","","","html-button-response","79","2.0.0","123275","66fc0d1538357d2081dda6b9","3","38","773","","","","","","","","","<img src= ""rock_img/I_Peridotite_10.jpg"" style=""width:8cm; height:5.390000000000001cm;""><p>What type of rock is this?</p>","2","class_response","0","test","37","Diorite","Peridotite","10","false","3","7"
"","","","","","","","","","","","html-keyboard-response","80","2.0.0","123790","66fc0d1538357d2081dda6b9","3","38","null","","","","","","","","","<p style='font-size: 30px;'><strong>Okay</strong></p>","null","neutral_feedback","0","test","37","","","","","",""
"","","","","","","","","","","","html-button-response","81","2.0.0","124422","66fc0d1538357d2081dda6b9","3","38","630","","","","","","","","","<img src= ""rock_img/I_Pegmatite_03.jpg"" style=""width:8cm; height:5.239999999999999cm;""><p>What type of rock is this?</p>","3","class_response","0","test","38","Gabbro","Pegmatite","03","false","4","6"
"","","","","","","","","","","","html-keyboard-response","82","2.0.0","124929","66fc0d1538357d2081dda6b9","3","38","null","","","","","","","","","<p style='font-size: 30px;'><strong>Okay</strong></p>","null","neutral_feedback","0","test","38","","","","","",""
"","","","","","","","","","","","html-button-response","83","2.0.0","125668","66fc0d1538357d2081dda6b9","3","38","737","","","","","","","","","<img src= ""rock_img/I_Andesite_07.jpg"" style=""width:8cm; height:5.93cm;""><p>What type of rock is this?</p>","6","class_response","0","test","39","Peridotite","Andesite","07","false","7","1"
"","","","","","","","","","","","html-keyboard-response","84","2.0.0","126173","66fc0d1538357d2081dda6b9","3","38","null","","","","","","","","","<p style='font-size: 30px;'><strong>Okay</strong></p>","null","neutral_feedback","0","test","39","","","","","",""
"","","","","","","","","","","","html-button-response","85","2.0.0","126846","66fc0d1538357d2081dda6b9","3","38","671","","","","","","","","","<img src= ""rock_img/I_Diorite_13.jpg"" style=""width:8cm; height:6.29cm;""><p>What type of rock is this?</p>","1","class_response","0","test","40","Basalt","Diorite","13","false","2","3"
"","","","","","","","","","","","html-keyboard-response","86","2.0.0","127357","66fc0d1538357d2081dda6b9","3","38","null","","","","","","","","","<p style='font-size: 30px;'><strong>Okay</strong></p>","null","neutral_feedback","0","test","40","","","","","",""
"","","","","","","","","","","","html-button-response","87","2.0.0","128053","66fc0d1538357d2081dda6b9","3","38","694","","","","","","","","","<img src= ""rock_img/I_Diorite_10.jpg"" style=""width:8cm; height:5.949999999999999cm;""><p>What type of rock is this?</p>","0","class_response","0","test","41","Andesite","Diorite","10","false","1","3"
"","","","","","","","","","","","html-keyboard-response","88","2.0.0","128568","66fc0d1538357d2081dda6b9","3","38","null","","","","","","","","","<p style='font-size: 30px;'><strong>Okay</strong></p>","null","neutral_feedback","0","test","41","","","","","",""
"","","","","","","","","","","","html-button-response","89","2.0.0","129597","66fc0d1538357d2081dda6b9","3","38","1026","","","","","","","","","<img src= ""rock_img/I_Basalt_05.jpg"" style=""width:8cm; height:8.18cm;""><p>What type of rock is this?</p>","4","class_response","0","test","42","Obsidian","Basalt","05","false","5","2"
"","","","","","","","","","","","html-keyboard-response","90","2.0.0","130102","66fc0d1538357d2081dda6b9","3","38","null","","","","","","","","","<p style='font-size: 30px;'><strong>Okay</strong></p>","null","neutral_feedback","0","test","42","","","","","",""
"","","","","","","","","","","","html-button-response","91","2.0.0","131259","66fc0d1538357d2081dda6b9","3","38","1156","","","","","","","","","<img src= ""rock_img/I_Basalt_11.jpg"" style=""width:8cm; height:5.359999999999999cm;""><p>What type of rock is this?</p>","5","class_response","0","test","43","Pegmatite","Basalt","11","false","6","2"
"","","","","","","","","","","","html-keyboard-response","92","2.0.0","131761","66fc0d1538357d2081dda6b9","3","38","null","","","","","","","","","<p style='font-size: 30px;'><strong>Okay</strong></p>","null","neutral_feedback","0","test","43","","","","","",""
"","","","","","","","","","","","html-button-response","93","2.0.0","132466","66fc0d1538357d2081dda6b9","3","38","704","","","","","","","","","<img src= ""rock_img/I_Pegmatite_10.jpg"" style=""width:8cm; height:4.16cm;""><p>What type of rock is this?</p>","6","class_response","0","test","44","Peridotite","Pegmatite","10","false","7","6"
"","","","","","","","","","","","html-keyboard-response","94","2.0.0","132970","66fc0d1538357d2081dda6b9","3","38","null","","","","","","","","","<p style='font-size: 30px;'><strong>Okay</strong></p>","null","neutral_feedback","0","test","44","","","","","",""
"","","","","","","","","","","","html-button-response","95","2.0.0","133574","66fc0d1538357d2081dda6b9","3","38","602","","","","","","","","","<img src= ""rock_img/I_Gabbro_01.jpg"" style=""width:8cm; height:5.21cm;""><p>What type of rock is this?</p>","2","class_response","0","test","45","Diorite","Gabbro","01","false","3","4"
"","","","","","","","","","","","html-keyboard-response","96","2.0.0","134076","66fc0d1538357d2081dda6b9","3","38","null","","","","","","","","","<p style='font-size: 30px;'><strong>Okay</strong></p>","null","neutral_feedback","0","test","45","","","","","",""
"","","","","","","","","","","","html-button-response","97","2.0.0","134989","66fc0d1538357d2081dda6b9","3","38","911","","","","","","","","","<img src= ""rock_img/I_Gabbro_09.jpg"" style=""width:8cm; height:7.279999999999999cm;""><p>What type of rock is this?</p>","1","class_response","0","test","46","Basalt","Gabbro","09","false","2","4"
"","","","","","","","","","","","html-keyboard-response","98","2.0.0","135495","66fc0d1538357d2081dda6b9","3","38","null","","","","","","","","","<p style='font-size: 30px;'><strong>Okay</strong></p>","null","neutral_feedback","0","test","46","","","","","",""
"","","","","","","","","","","","html-button-response","99","2.0.0","137245","66fc0d1538357d2081dda6b9","3","38","1748","","","","","","","","","<img src= ""rock_img/I_Basalt_08.jpg"" style=""width:8cm; height:10.44cm;""><p>What type of rock is this?</p>","1","class_response","0","test","47","Basalt","Basalt","08","true","2","2"
"","","","","","","","","","","","html-keyboard-response","100","2.0.0","137757","66fc0d1538357d2081dda6b9","3","38","null","","","","","","","","","<p style='font-size: 30px;'><strong>Okay</strong></p>","null","neutral_feedback","0","test","47","","","","","",""
"","","","","","","","","","","","html-button-response","101","2.0.0","138698","66fc0d1538357d2081dda6b9","3","38","939","","","","","","","","","<img src= ""rock_img/I_Gabbro_12.jpg"" style=""width:8cm; height:7.800000000000001cm;""><p>What type of rock is this?</p>","5","class_response","0","test","48","Pegmatite","Gabbro","12","false","6","4"
"","","","","","","","","","","","html-keyboard-response","102","2.0.0","139202","66fc0d1538357d2081dda6b9","3","38","null","","","","","","","","","<p style='font-size: 30px;'><strong>Okay</strong></p>","null","neutral_feedback","0","test","48","","","","","",""
"","","","","","","","","","","","instructions","103","2.0.0","156787","66fc0d1538357d2081dda6b9","3","38","17564","","","","","","","","[{""page_index"":0,""viewing_time"":13695},{""page_index"":1,""viewing_time"":3869}]","","","","","","","","","","","",""
"","","","","","","","","","","","html-button-response","104","2.0.0","160201","66fc0d1538357d2081dda6b9","3","38","3412","","","","","","","","","","0","start_train","","","","","","","","",""
"","","","","","","","","","","","html-button-response","106","2.0.0","162780","66fc0d1538357d2081dda6b9","3","38","2577","","","","","","","","","<img src= ""rock_img/I_Obsidian_02.jpg"" style=""width:8cm; height:7.51cm;""><p>What type of rock is this?</p>","2","class_response","1","train","1","Diorite","Obsidian","02","false","3","5"
"","","","","","","","","","","","html-button-response","107","2.0.0","166025","66fc0d1538357d2081dda6b9","3","38","3242","","","","","","","","","<img src= rock_img/I_Obsidian_02.jpg style=""width:8cm; height:7.51cm;""><p style='font-size: 30px; color: red;'><strong>Incorrect!</strong></p><p style='font-size: 30px;'><strong>This rock is obsidian</strong></p>","0","corr_feedback","1","train","1","","","","","",""
"","","","","","","","","","","","html-button-response","108","2.0.0","168962","66fc0d1538357d2081dda6b9","3","38","2936","","","","","","","","","<img src= ""rock_img/I_Peridotite_08.jpg"" style=""width:8cm; height:6.7cm;""><p>What type of rock is this?</p>","2","class_response","1","train","2","Diorite","Peridotite","08","false","3","7"
"","","","","","","","","","","","html-button-response","109","2.0.0","181071","66fc0d1538357d2081dda6b9","3","38","12107","","","","","","","","","<img src= rock_img/I_Peridotite_08.jpg style=""width:8cm; height:6.7cm;""><p style='font-size: 30px; color: red;'><strong>Incorrect!</strong></p><p style='font-size: 30px;'><strong>This rock is peridotite</strong></p>","0","corr_feedback","1","train","2","","","","","",""
"","","","","","","","","","","","html-button-response","110","2.0.0","183119","66fc0d1538357d2081dda6b9","3","38","2047","","","","","","","","","<img src= ""rock_img/I_Andesite_06.jpg"" style=""width:8cm; height:6.840000000000001cm;""><p>What type of rock is this?</p>","5","class_response","1","train","3","Pegmatite","Andesite","06","false","6","1"
"","","","","","","","","","","","html-button-response","111","2.0.0","186749","66fc0d1538357d2081dda6b9","3","38","3628","","","","","","","","","<img src= rock_img/I_Andesite_06.jpg style=""width:8cm; height:6.840000000000001cm;""><p style='font-size: 30px; color: red;'><strong>Incorrect!</strong></p><p style='font-size: 30px;'><strong>This rock is andesite</strong></p>","0","corr_feedback","1","train","3","","","","","",""
"","","","","","","","","","","","html-button-response","112","2.0.0","189590","66fc0d1538357d2081dda6b9","3","38","2839","","","","","","","","","<img src= ""rock_img/I_Gabbro_10.jpg"" style=""width:8cm; height:5.680000000000001cm;""><p>What type of rock is this?</p>","5","class_response","1","train","4","Pegmatite","Gabbro","10","false","6","4"
"","","","","","","","","","","","html-button-response","113","2.0.0","193962","66fc0d1538357d2081dda6b9","3","38","4371","","","","","","","","","<img src= rock_img/I_Gabbro_10.jpg style=""width:8cm; height:5.680000000000001cm;""><p style='font-size: 30px; color: red;'><strong>Incorrect!</strong></p><p style='font-size: 30px;'><strong>This rock is gabbro</strong></p>","0","corr_feedback","1","train","4","","","","","",""
"","","","","","","","","","","","html-button-response","114","2.0.0","197238","66fc0d1538357d2081dda6b9","3","38","3273","","","","","","","","","<img src= ""rock_img/I_Andesite_01.jpg"" style=""width:8cm; height:5.87cm;""><p>What type of rock is this?</p>","5","class_response","1","train","5","Pegmatite","Andesite","01","false","6","1"
"","","","","","","","","","","","html-button-response","115","2.0.0","199620","66fc0d1538357d2081dda6b9","3","38","2381","","","","","","","","","<img src= rock_img/I_Andesite_01.jpg style=""width:8cm; height:5.87cm;""><p style='font-size: 30px; color: red;'><strong>Incorrect!</strong></p><p style='font-size: 30px;'><strong>This rock is andesite</strong></p>","0","corr_feedback","1","train","5","","","","","",""
"","","","","","","","","","","","html-button-response","116","2.0.0","203112","66fc0d1538357d2081dda6b9","3","38","3490","","","","","","","","","<img src= ""rock_img/I_Diorite_11.jpg"" style=""width:8cm; height:7.11cm;""><p>What type of rock is this?</p>","5","class_response","1","train","6","Pegmatite","Diorite","11","false","6","3"
"","","","","","","","","","","","html-button-response","117","2.0.0","206862","66fc0d1538357d2081dda6b9","3","38","3748","","","","","","","","","<img src= rock_img/I_Diorite_11.jpg style=""width:8cm; height:7.11cm;""><p style='font-size: 30px; color: red;'><strong>Incorrect!</strong></p><p style='font-size: 30px;'><strong>This rock is diorite</strong></p>","0","corr_feedback","1","train","6","","","","","",""
"","","","","","","","","","","","html-button-response","118","2.0.0","210809","66fc0d1538357d2081dda6b9","3","38","3944","","","","","","","","","<img src= ""rock_img/I_Basalt_10.jpg"" style=""width:8cm; height:5.85cm;""><p>What type of rock is this?</p>","6","class_response","1","train","7","Peridotite","Basalt","10","false","7","2"
"","","","","","","","","","","","html-button-response","119","2.0.0","213857","66fc0d1538357d2081dda6b9","3","38","3046","","","","","","","","","<img src= rock_img/I_Basalt_10.jpg style=""width:8cm; height:5.85cm;""><p style='font-size: 30px; color: red;'><strong>Incorrect!</strong></p><p style='font-size: 30px;'><strong>This rock is basalt</strong></p>","0","corr_feedback","1","train","7","","","","","",""
"","","","","","","","","","","","html-button-response","120","2.0.0","217576","66fc0d1538357d2081dda6b9","3","38","3717","","","","","","","","","<img src= ""rock_img/I_Diorite_07.jpg"" style=""width:8cm; height:5.239999999999999cm;""><p>What type of rock is this?</p>","2","class_response","1","train","8","Diorite","Diorite","07","true","3","3"
"","","","","","","","","","","","html-button-response","121","2.0.0","221346","66fc0d1538357d2081dda6b9","3","38","3768","","","","","","","","","<img src= rock_img/I_Diorite_07.jpg style=""width:8cm; height:5.239999999999999cm;""><p style='font-size: 30px; color: green;'><strong>Correct!</strong></p><p style='font-size: 30px;'><strong>This rock is diorite</strong></p>","0","corr_feedback","1","train","8","","","","","",""
"","","","","","","","","","","","html-button-response","122","2.0.0","224362","66fc0d1538357d2081dda6b9","3","38","3015","","","","","","","","","<img src= ""rock_img/I_Obsidian_11.jpg"" style=""width:8cm; height:6.05cm;""><p>What type of rock is this?</p>","6","class_response","1","train","9","Peridotite","Obsidian","11","false","7","5"
"","","","","","","","","","","","html-button-response","123","2.0.0","230693","66fc0d1538357d2081dda6b9","3","38","6329","","","","","","","","","<img src= rock_img/I_Obsidian_11.jpg style=""width:8cm; height:6.05cm;""><p style='font-size: 30px; color: red;'><strong>Incorrect!</strong></p><p style='font-size: 30px;'><strong>This rock is obsidian</strong></p>","0","corr_feedback","1","train","9","","","","","",""
"","","","","","","","","","","","html-button-response","124","2.0.0","232346","66fc0d1538357d2081dda6b9","3","38","1651","","","","","","","","","<img src= ""rock_img/I_Basalt_02.jpg"" style=""width:8cm; height:6.45cm;""><p>What type of rock is this?</p>","2","class_response","1","train","10","Diorite","Basalt","02","false","3","2"
"","","","","","","","","","","","html-button-response","125","2.0.0","233444","66fc0d1538357d2081dda6b9","3","38","1096","","","","","","","","","<img src= rock_img/I_Basalt_02.jpg style=""width:8cm; height:6.45cm;""><p style='font-size: 30px; color: red;'><strong>Incorrect!</strong></p><p style='font-size: 30px;'><strong>This rock is basalt</strong></p>","0","corr_feedback","1","train","10","","","","","",""
"","","","","","","","","","","","html-button-response","126","2.0.0","234710","66fc0d1538357d2081dda6b9","3","38","1264","","","","","","","","","<img src= ""rock_img/I_Pegmatite_11.jpg"" style=""width:8cm; height:8.14cm;""><p>What type of rock is this?</p>","0","class_response","1","train","11","Andesite","Pegmatite","11","false","1","6"
"","","","","","","","","","","","html-button-response","127","2.0.0","235789","66fc0d1538357d2081dda6b9","3","38","1077","","","","","","","","","<img src= rock_img/I_Pegmatite_11.jpg style=""width:8cm; height:8.14cm;""><p style='font-size: 30px; color: red;'><strong>Incorrect!</strong></p><p style='font-size: 30px;'><strong>This rock is pegmatite</strong></p>","0","corr_feedback","1","train","11","","","","","",""
"","","","","","","","","","","","html-button-response","128","2.0.0","236828","66fc0d1538357d2081dda6b9","3","38","1037","","","","","","","","","<img src= ""rock_img/I_Pumice_03.jpg"" style=""width:8cm; height:6.64cm;""><p>What type of rock is this?</p>","1","class_response","1","train","12","Basalt","Pumice","03","false","2","8"
"","","","","","","","","","","","html-button-response","129","2.0.0","237846","66fc0d1538357d2081dda6b9","3","38","1016","","","","","","","","","<img src= rock_img/I_Pumice_03.jpg style=""width:8cm; height:6.64cm;""><p style='font-size: 30px; color: red;'><strong>Incorrect!</strong></p><p style='font-size: 30px;'><strong>This rock is pumice</strong></p>","0","corr_feedback","1","train","12","","","","","",""
